t ax ay az w1 w2 w3
0.003915 0.330186 0.133988 8.522623 1.220740 -0.610370 0.488296
0.014920 0.306259 0.210553 8.572869 1.251259 -0.701926 0.732444
0.024216 0.368468 0.200983 8.522623 1.190222 -0.701926 0.488296
0.033319 0.224909 0.229695 8.565691 1.342814 -0.701926 0.793481
0.043080 0.334971 0.181841 8.544157 1.281777 -0.518815 0.488296
0.050863 0.315830 0.172271 8.568084 1.373333 -0.549333 0.671407
0.058347 0.323008 0.251228 8.584832 1.556444 -0.579852 0.610370
0.065864 0.361290 0.272762 8.663790 1.312296 -0.732444 0.518815
0.074653 0.323008 -0.011963 8.414954 1.434370 -0.518815 0.640889
0.083739 0.162700 -0.062209 8.505875 1.586962 -0.671407 0.610370
0.093069 0.162700 -0.069387 8.431703 1.342814 -0.610370 0.885037
0.101990 0.248836 0.074172 8.527409 1.251259 -0.579852 0.701926
0.112233 0.303867 0.198590 8.462807 1.312296 -0.762963 0.671407
0.121325 0.296689 0.150737 8.450844 1.403851 -0.640889 0.488296
0.130297 0.368468 0.196197 8.515445 1.342814 -0.640889 0.640889
0.139058 0.334971 0.181841 8.501090 1.312296 -0.549333 0.701926
0.148118 0.189019 0.174664 8.505875 1.342814 -0.793481 0.579852
0.157072 0.241658 0.232087 8.551335 1.403851 -0.457778 0.701926
0.165959 0.296689 0.150737 8.460414 1.342814 -0.549333 0.640889
0.174867 0.342149 0.138774 8.469985 1.190222 -0.610370 0.549333
0.183787 0.251228 0.129203 8.510660 1.220740 -0.854518 0.457778
0.192733 0.215339 0.157915 8.615937 1.312296 -0.671407 0.610370
0.201587 0.313437 0.150737 8.572869 1.403851 -0.701926 0.579852
0.210502 0.342149 0.270370 8.501090 1.281777 -0.549333 0.640889
0.219404 0.294296 0.208161 8.637471 1.464888 -0.824000 0.579852
0.228348 0.220124 0.169878 8.582440 1.373333 -0.640889 0.549333
0.237194 0.370861 0.114847 8.541765 1.342814 -0.549333 0.640889
0.245493 0.375646 0.160308 8.522623 1.251259 -0.488296 0.671407
0.253665 0.342149 0.150737 8.541765 1.190222 -0.732444 0.579852
0.261263 0.318223 0.167486 8.517838 1.220740 -0.579852 0.396741
0.269432 0.282333 0.122025 8.534587 1.403851 -0.579852 0.610370
0.277616 0.234480 0.148344 8.455629 1.373333 -0.610370 0.488296
0.285218 0.294296 0.117240 8.613544 1.220740 -0.518815 0.824000
0.292806 0.205768 0.174664 8.548943 1.403851 -0.579852 0.671407
0.300977 0.325401 0.124418 8.553728 1.434370 -0.671407 0.518815
0.308592 0.337364 0.232087 8.572869 1.342814 -0.549333 0.610370
0.316192 0.378039 0.150737 8.556120 1.342814 -0.732444 0.640889
0.323785 0.301474 0.157915 8.498697 1.251259 -0.549333 0.671407
0.331945 0.315830 0.167486 8.510660 1.403851 -0.488296 0.732444
0.339541 0.342149 0.165093 8.465200 1.251259 -0.610370 0.610370
0.347655 0.253621 0.198590 8.580047 1.312296 -0.549333 0.610370
0.355814 0.258406 0.186627 8.515445 1.403851 -0.549333 0.824000
0.363411 0.227302 0.100491 8.541765 1.220740 -0.610370 0.610370
0.371731 0.241658 0.150737 8.508267 1.190222 -0.762963 0.640889
0.379329 0.210553 0.160308 8.534587 1.342814 -0.610370 0.549333
0.387648 0.282333 0.165093 8.551335 1.312296 -0.488296 0.549333
0.395872 0.325401 0.208161 8.560906 1.312296 -0.701926 0.732444
0.404039 0.330186 0.241658 8.498697 1.434370 -0.549333 0.457778
0.412205 0.320615 0.124418 8.546550 1.373333 -0.610370 0.671407
0.419811 0.236872 0.153130 8.532194 1.220740 -0.640889 0.610370
0.427398 0.241658 0.186627 8.434095 1.129185 -0.732444 0.518815
0.435570 0.236872 0.055031 8.489126 1.281777 -0.640889 0.701926
0.443166 0.210553 0.141166 8.522623 1.220740 -0.671407 0.518815
0.450754 0.287118 0.131596 8.448451 1.281777 -0.701926 0.671407
0.458919 0.248836 0.220124 8.599188 1.220740 -0.518815 0.824000
0.466516 0.248836 0.136381 8.560906 1.251259 -0.824000 0.549333
0.474616 0.342149 0.177056 8.467592 1.159703 -0.671407 0.488296
0.482790 0.380432 0.179449 8.575262 1.220740 -0.671407 0.640889
0.490468 0.330186 0.136381 8.563298 1.281777 -0.701926 0.549333
0.498832 0.284725 0.232087 8.448451 1.403851 -0.549333 0.732444
0.506546 0.279940 0.177056 8.501090 1.434370 -0.640889 0.732444
0.514495 0.177056 0.155522 8.544157 1.403851 -0.549333 0.885037
0.522803 0.246443 0.177056 8.560906 1.434370 -0.579852 0.762963
0.530520 0.258406 0.186627 8.467592 1.281777 -0.762963 0.610370
0.538683 0.346934 0.157915 8.429310 1.403851 -0.701926 0.457778
0.546267 0.339756 0.215339 8.508267 1.190222 -0.610370 0.549333
0.554422 0.361290 0.232087 8.513053 1.251259 -0.640889 0.824000
0.562008 0.349327 0.203375 8.558513 1.342814 -0.701926 0.457778
0.570303 0.296689 0.179449 8.577654 1.403851 -0.640889 0.518815
0.577896 0.256014 0.157915 8.493912 1.434370 -0.732444 0.488296
0.586055 0.258406 0.133988 8.458022 1.251259 -0.824000 0.488296
0.593650 0.239265 0.184234 8.627900 1.159703 -0.610370 0.518815
0.601811 0.267977 0.196197 8.484341 1.220740 -0.640889 0.671407
0.609403 0.296689 0.160308 8.520231 1.403851 -0.640889 0.701926
0.616996 0.296689 0.200983 8.515445 1.342814 -0.610370 0.579852
0.625145 0.325401 0.172271 8.594403 1.342814 -0.671407 0.610370
0.632730 0.397180 0.157915 8.534587 1.281777 -0.640889 0.671407
0.640319 0.294296 0.129203 8.515445 1.342814 -0.610370 0.488296
0.648479 0.284725 0.186627 8.613544 1.434370 -0.671407 0.579852
0.656072 0.363683 0.177056 8.558513 1.403851 -0.640889 0.579852
0.663897 0.315830 0.145952 8.594403 1.373333 -0.701926 0.518815
0.672132 0.244050 0.129203 8.594403 1.220740 -0.640889 0.488296
0.679747 0.232087 0.126811 8.532194 1.190222 -0.610370 0.579852
0.687358 0.232087 0.203375 8.510660 1.281777 -0.549333 0.427259
0.694953 0.239265 0.055031 8.529801 1.312296 -0.701926 0.457778
0.703136 0.265584 0.098099 8.536979 1.281777 -0.701926 0.366222
0.710755 0.315830 0.191412 8.541765 1.007111 -0.824000 0.732444
0.718961 0.373254 0.155522 8.505875 1.251259 -0.610370 0.701926
0.726562 0.392395 0.222517 8.496304 1.251259 -0.732444 0.488296
0.734163 0.370861 0.186627 8.603974 1.220740 -0.732444 0.549333
0.742451 0.291903 0.157915 8.575262 1.190222 -0.549333 0.671407
0.750053 0.330186 0.193805 8.532194 1.159703 -0.610370 0.579852
0.758220 0.275155 0.122025 8.697287 1.037629 -0.640889 0.640889
0.765828 0.220124 0.145952 8.541765 1.190222 -0.793481 0.579852
0.773435 0.215339 0.133988 8.438881 1.129185 -0.640889 0.488296
0.781034 0.260799 0.136381 8.448451 1.098666 -0.732444 0.549333
0.789205 0.246443 0.141166 8.565691 1.159703 -0.457778 0.549333
0.796793 0.306259 0.150737 8.572869 1.129185 -0.457778 0.610370
0.804388 0.337364 0.169878 8.513053 1.281777 -0.732444 0.640889
0.812680 0.394787 0.165093 8.529801 1.312296 -0.671407 0.762963
0.820276 0.366076 0.193805 8.630293 1.495407 -0.671407 0.854518
0.828446 0.358898 0.224909 8.522623 1.464888 -0.579852 0.732444
0.836046 0.332579 0.074172 8.565691 1.586962 -0.701926 0.976592
0.843651 0.267977 0.148344 8.426917 1.434370 -0.793481 1.403851
0.851809 0.215339 0.150737 8.498697 1.373333 -0.732444 1.617481
0.859405 0.179449 0.157915 8.534587 1.281777 -0.671407 1.739555
0.867011 0.253621 0.181841 8.493912 1.129185 -0.824000 1.403851
0.875180 0.354112 -0.011963 8.570476 1.373333 -0.701926 1.892148
0.882783 0.385217 0.112455 8.580047 1.312296 -0.671407 1.770074
0.890381 0.200983 0.301474 8.479556 1.586962 -0.427259 1.434370
0.898552 0.378039 0.346934 8.458022 1.403851 -0.610370 0.366222
0.906155 0.337364 0.157915 8.496304 1.312296 -0.518815 0.854518
0.914319 0.246443 0.253621 8.536979 1.495407 -0.610370 0.610370
0.921921 0.313437 0.155522 8.474770 1.281777 -0.518815 0.640889
0.930031 0.318223 0.205768 8.532194 1.434370 -0.701926 0.488296
0.938450 0.256014 0.181841 8.584832 1.281777 -0.579852 0.518815
0.947314 0.315830 0.069387 8.568084 1.403851 -0.793481 0.824000
0.955475 0.356505 0.167486 8.503482 1.434370 -0.610370 0.671407
0.963083 0.289511 0.100491 8.417347 1.373333 -0.640889 1.098666
0.970684 0.394787 0.062209 8.515445 1.342814 -0.488296 1.831111
0.978856 0.311045 0.136381 8.642256 1.434370 -0.366222 1.861629
0.986460 0.203375 0.361290 8.560906 0.701926 -0.488296 -0.030519
0.994734 0.279940 0.275155 8.520231 1.037629 -0.579852 0.305185
1.003243 0.282333 0.203375 8.551335 1.373333 -0.640889 0.610370
1.011428 0.306259 0.141166 8.534587 1.403851 -0.427259 0.457778
1.019037 0.272762 0.167486 8.580047 1.312296 -0.640889 0.396741
1.027217 0.339756 0.169878 8.493912 1.312296 -0.701926 0.488296
1.034823 0.339756 0.165093 8.548943 1.281777 -0.549333 0.457778
1.044690 0.265584 0.129203 8.548943 1.373333 -0.671407 0.579852
1.054024 0.229695 0.100491 8.563298 1.281777 -0.610370 0.305185
1.062842 0.294296 0.145952 8.553728 1.251259 -0.640889 0.000000
1.071864 0.351720 0.205768 8.558513 1.220740 -0.396741 -0.488296
1.080195 0.299081 0.177056 8.565691 1.190222 -0.640889 -0.061037
1.087829 0.232087 0.208161 8.493912 1.434370 -0.579852 0.152593
1.096044 0.186627 0.172271 8.477163 1.312296 -0.701926 -0.030519
1.103679 0.239265 0.145952 8.539372 1.312296 -0.671407 0.030519
1.111284 0.205768 0.124418 8.465200 1.373333 -0.640889 0.152593
1.119416 0.301474 0.138774 8.589618 1.403851 -0.579852 0.396741
1.127870 0.325401 0.186627 8.544157 1.403851 -0.457778 0.427259
1.136742 0.346934 0.217731 8.563298 1.251259 -0.549333 0.305185
1.145789 0.234480 0.186627 8.551335 1.403851 -0.640889 0.152593
1.154522 0.239265 0.246443 8.529801 1.281777 -0.762963 -0.152593
1.162932 0.318223 0.157915 8.565691 1.312296 -0.701926 -1.007111
1.170762 0.318223 0.148344 8.599188 1.373333 -0.732444 0.152593
1.179354 0.416321 0.287118 8.529801 1.312296 -0.610370 0.610370
1.186958 0.339756 0.227302 8.587225 1.159703 -0.732444 0.701926
1.195126 0.272762 0.184234 8.498697 1.525925 -0.671407 0.610370
1.202717 0.296689 0.234480 8.548943 1.434370 -0.488296 0.762963
1.210889 0.227302 0.117240 8.558513 1.312296 -0.579852 0.549333
1.218490 0.234480 0.143559 8.580047 1.312296 -0.671407 0.549333
1.226084 0.267977 0.165093 8.529801 1.403851 -0.549333 0.549333
1.234244 0.356505 0.119633 8.570476 1.373333 -0.549333 0.793481
1.241848 0.394787 0.181841 8.498697 1.342814 -0.488296 0.518815
1.249442 0.330186 0.136381 8.410169 1.373333 -0.640889 0.518815
1.257613 0.423499 0.210553 8.615937 1.434370 -0.793481 0.671407
1.265196 0.378039 0.215339 8.580047 1.434370 -0.640889 0.732444
1.272806 0.330186 0.124418 8.517838 1.281777 -0.518815 0.732444
1.281116 0.296689 0.234480 8.556120 1.373333 -0.549333 0.732444
1.289281 0.272762 0.256014 8.479556 1.342814 -0.640889 0.427259
1.296884 0.251228 0.100491 8.558513 1.373333 -0.610370 0.427259
1.304482 0.181841 0.126811 8.560906 1.403851 -0.488296 0.335704
1.312661 0.224909 -0.327793 8.534587 1.342814 -0.579852 -3.082369
1.320261 0.220124 -0.437855 8.510660 0.488296 -0.946074 -8.270516
1.327867 0.349327 -0.122025 8.656612 2.349925 -1.434370 -13.458663
1.336013 0.272762 -0.224909 8.510660 0.305185 -1.525925 -17.181921
1.345000 -0.035890 -0.062209 8.721213 3.204443 -0.732444 -19.959105
1.353210 0.181841 0.198590 8.182867 1.342814 -0.610370 -19.653920
1.360822 0.478530 -0.143559 8.558513 1.770074 -0.946074 -15.015107
1.369004 -0.452211 -1.569579 9.884042 1.861629 0.946074 -11.261330
1.376631 -0.165093 1.631788 8.783422 -2.197333 -1.525925 -19.470809
1.384823 -0.236872 1.193933 8.737962 1.678518 -0.488296 -13.000885
1.392438 0.480923 0.827857 8.541765 -0.213630 -0.701926 -8.178961
1.400615 0.949883 0.406751 8.481948 -0.305185 -0.885037 -3.021332
1.408214 0.842213 -0.169878 8.592010 0.335704 -0.885037 -1.251259
1.415807 0.456996 0.416321 8.522623 0.549333 -0.518815 0.854518
1.423403 0.327793 1.244179 8.525016 -0.396741 -0.610370 0.305185
1.431561 1.103012 0.150737 8.943730 -1.373333 -0.213630 4.150517
1.439155 0.533561 0.392395 8.673360 -0.762963 -0.122074 7.080294
1.446754 0.399573 -0.100491 9.029865 -0.518815 3.631703 6.988739
1.454928 0.392395 0.153130 9.338517 -3.784295 4.852443 5.676443
1.462515 0.172271 0.208161 8.816919 -6.042665 5.645924 4.455702
1.470670 0.021534 -0.110062 8.474770 -6.469924 4.943999 5.829035
1.478284 0.198590 -0.248836 8.527409 -6.225776 5.371258 5.890072
1.485871 0.007178 -0.236872 8.824097 -5.706961 7.141331 3.357036
1.494040 -0.203375 0.184234 8.752318 -7.293924 8.514664 -0.885037
1.501638 -0.215339 -0.011963 8.446059 -8.270516 7.812738 -4.852443
1.509231 0.007178 0.050246 9.039436 -10.406812 8.941923 -7.141331
1.517420 0.452211 0.724973 9.415082 -14.862514 10.010071 -7.232887
1.525044 0.342149 0.425892 9.149498 -18.921476 9.582812 -5.645924
1.533237 0.066994 -0.095706 8.383850 -21.515549 7.232887 -2.746666
1.540861 -0.720188 -3.684683 7.338261 -19.867550 1.586962 2.075259
1.549041 0.315830 0.064602 7.957958 -15.320292 0.488296 0.305185
1.556655 0.622089 0.055031 8.249861 -9.643849 5.951109 -4.058962
1.564249 0.332579 -0.492886 8.465200 -7.629627 8.850368 -5.188147
1.571834 -0.021534 -0.181841 8.541765 -7.141331 8.362072 -4.425184
1.580000 0.062209 0.189019 8.371886 -8.270516 5.096591 -3.357036
1.587603 0.224909 0.165093 8.532194 -9.186071 2.868740 -1.129185
1.595187 0.538347 0.239265 8.501090 -8.880886 2.685629 0.305185
1.603352 0.344542 0.028712 8.556120 -8.941923 3.021332 1.800592
1.610951 0.148344 -0.425892 8.642256 -9.308145 3.051851 2.868740
1.619124 -0.019141 -0.655586 8.809742 -10.986663 2.868740 2.594073
1.626755 -0.368468 -0.538347 9.087289 -13.794366 4.058962 -0.824000
1.634393 0.110062 0.212946 9.044221 -15.503403 6.317331 -0.946074
1.642591 -0.490493 -0.442640 9.360051 -19.837031 7.660146 -0.335704
1.651056 -0.952275 -1.292032 9.410297 -26.306955 7.019257 3.326518
1.659051 -1.091049 -1.083871 8.881521 -30.426954 6.744591 3.326518
1.667377 -1.114975 -1.490622 9.001154 -34.485916 5.401776 1.037629
1.675100 -0.650801 -1.538475 8.881521 -38.727989 5.401776 -1.556444
1.683295 -0.253621 -1.258535 8.618329 -39.368877 6.897183 -5.401776
1.690916 0.184234 -0.655586 8.467592 -39.460433 9.399701 -6.958220
1.699104 0.598163 -0.356505 8.190045 -37.049471 10.467849 -8.087405
1.706745 0.703439 0.014356 7.919675 -34.424879 8.819849 -7.904294
1.714364 0.593377 0.162700 7.802435 -30.243843 6.836146 -7.660146
1.722559 0.562273 0.643623 7.532066 -24.933622 4.364147 -9.094516
1.730174 0.490493 0.590985 7.692373 -18.616291 2.655110 -9.735405
1.738379 0.495279 0.392395 8.010596 -13.519700 2.227851 -8.331553
1.745993 0.229695 -0.995343 8.438881 -11.932737 1.739555 -8.056887
1.753613 -0.177056 -1.069515 8.422132 -12.176885 1.342814 -6.683554
1.761792 0.023927 -0.780004 8.374279 -13.275552 -1.159703 -5.066073
1.769416 -0.009571 -0.885281 8.702072 -14.831996 -3.357036 -4.242073
1.777592 0.102884 -1.332707 8.824097 -17.334513 -4.364147 -1.525925
1.785223 0.172271 -1.746635 8.527409 -18.311106 -3.784295 2.410962
1.792836 -0.559880 -2.206024 8.041700 -17.090365 -6.836146 8.301035
1.801026 -0.619697 -1.504978 7.905319 -18.036439 -13.855403 11.566515
1.808676 0.229695 -0.583807 8.321641 -18.341624 -15.808588 12.146367
1.816319 0.567058 -0.746507 8.584832 -15.686514 -13.336589 10.864589
1.824541 0.404358 -1.426020 8.448451 -14.770959 -10.986663 11.078219
1.832184 0.043068 -2.131852 8.462807 -16.571551 -12.878811 15.411847
1.840501 -0.413929 -2.490750 8.850417 -21.973327 -17.578661 20.905179
1.848939 -0.600555 -2.280197 8.986798 -29.267251 -24.018067 24.903104
1.857160 -0.478530 -1.495407 8.764281 -40.009766 -33.997620 26.947844
1.864809 -0.220124 -0.071780 9.003546 -47.120579 -41.108432 24.018067
1.873031 0.363683 0.485708 9.407904 -53.437910 -43.580432 14.740440
1.880669 1.069515 0.026319 7.173168 -58.412427 -44.984283 14.679403
1.888305 0.586200 -3.313822 6.189789 -44.465468 17.090365 10.650960
1.896520 2.426148 -0.277548 6.886050 -30.121769 -13.855403 20.264290
1.904165 -0.772826 -1.196326 8.166118 -21.301920 3.692740 19.104587
1.912366 1.344670 -2.447682 9.486862 -30.213324 -11.444441 23.529771
1.920006 -1.012091 -0.717795 8.888699 -30.579546 1.495407 17.212439
1.927636 -0.789575 0.722581 8.300107 -32.593768 -5.157628 9.277627
1.935830 -1.555223 0.165093 7.419611 -26.612140 1.220740 -4.394665
1.943443 -0.772826 -0.873318 7.151634 -18.311106 -2.014222 -10.132145
1.951961 -0.890066 -1.856697 6.632429 -4.669332 1.190222 -13.275552
1.960265 0.447426 -3.033882 7.098996 5.188147 0.671407 -13.672292
1.968438 0.715403 -2.416578 7.864644 10.193182 1.312296 -14.831996
1.976636 0.846999 -1.375774 8.857595 10.040590 0.915555 -11.566515
1.984264 0.952275 -0.959453 9.233241 6.225776 -0.824000 -5.249184
1.991854 0.906815 -1.040803 8.716428 3.448592 -1.281777 -1.464888
1.999997 0.229695 -1.069515 8.644649 1.525925 1.861629 -0.091556
2.007656 -0.387609 -1.117368 8.520231 0.122074 -1.922666 0.000000
2.015245 -0.466567 -1.126939 8.785815 -0.762963 2.227851 -3.845332
2.023402 -0.112455 -1.665285 8.611151 -2.502518 -0.762963 -6.500443
2.031424 0.124418 -1.650929 8.446059 -3.692740 0.946074 -8.728294
2.039868 0.464174 -0.849391 9.041829 -6.530961 2.990814 -10.284738
2.048227 0.392395 -1.533689 8.855202 -10.467849 -0.091556 -7.782220
2.055956 0.634053 -1.930869 8.869558 -13.824885 1.709037 -5.310221
2.064064 0.390002 -1.433198 9.297842 -18.890957 2.349925 -4.760887
2.072416 0.803931 -1.708353 9.340910 -24.109622 2.929777 -0.946074
2.080756 1.009699 -2.210810 8.651827 -26.154363 8.056887 3.570666
2.088734 0.794360 -2.495535 8.515445 -25.757622 12.756737 7.995849
2.096637 0.473745 -2.842470 8.572869 -25.055696 17.273476 9.949034
2.105027 0.306259 -3.285110 8.611151 -21.485031 18.005921 9.887997
2.113197 -0.066994 -3.505234 8.869558 -14.984588 14.648885 8.087405
2.122244 -0.533561 -3.646400 9.182995 -7.629627 6.775109 4.089480
2.131129 -0.684298 -3.445418 9.297842 0.122074 -4.913480 0.305185
2.140006 -0.550310 -3.306644 9.381585 6.591998 -17.548143 -4.333628
2.148752 -0.064602 -3.057808 9.618458 10.498367 -28.015992 -10.986663
2.157701 0.325401 -3.160692 9.836189 18.036439 -34.455397 -15.717032
2.166643 0.198590 -3.110446 9.793121 30.732139 -39.490951 -19.196142
2.175087 -0.492886 -2.837684 9.821833 37.751396 -47.059542 -23.987548
2.183789 -0.878103 -2.567315 9.778765 41.230506 -56.581317 -27.863399
2.191447 -0.701047 -2.153386 9.596924 43.153172 -63.509018 -28.290658
2.200016 -0.590985 -1.701175 9.541893 41.962951 -66.072573 -25.330363
2.208377 -0.279940 -1.423627 9.285879 38.209174 -66.133610 -20.447401
2.216128 -0.100491 -1.351848 8.862380 30.610065 -64.790796 -15.564440
2.224368 0.435463 -1.531297 8.635078 20.874660 -61.830500 -11.566515
2.232532 1.222645 -1.593506 8.649434 12.390515 -50.996429 -7.568590
2.241516 1.665285 -1.650929 8.570476 8.484146 -35.248878 -3.234962
2.249790 1.777740 -1.849519 8.642256 7.690664 -19.348735 0.366222
2.257989 1.653322 -1.902158 8.733177 8.545183 -4.425184 2.136296
2.265589 1.497800 -1.885409 8.917411 9.674368 7.293924 3.479110
2.273754 1.385345 -2.072036 9.163854 11.566515 17.914365 3.509629
2.281375 1.234608 -2.119889 9.410297 14.770959 27.802362 3.601184
2.289002 0.794360 -2.045717 9.517966 19.348735 36.042360 4.089480
2.296631 0.406751 -1.918906 9.434223 23.133030 37.598804 6.195257
2.304840 0.133988 -2.773083 9.814655 31.769768 37.476730 10.467849
2.313335 -0.038282 -2.959709 9.907968 43.336283 35.584582 13.336589
2.321691 -0.066994 -2.026576 9.860115 53.804132 31.617176 16.083254
2.329411 -0.086135 -1.775347 9.896005 60.975982 25.452437 18.127995
2.337641 -0.296689 -1.234608 9.824226 66.316721 19.806513 18.555254
2.345287 -0.368468 -1.002521 9.714164 67.690054 13.580737 17.822810
2.353507 -0.416321 -0.909207 9.515574 69.307535 5.096591 16.632588
2.361143 -0.421107 -1.036018 9.180602 69.582202 -0.335704 15.717032
2.369333 -0.057424 -0.906815 8.718821 70.986053 -4.669332 14.435255
2.376979 0.081350 -0.890066 8.680538 71.810053 -5.310221 13.733329
2.384616 0.349327 -0.485708 8.606366 70.192572 -5.066073 13.580737
2.392810 0.236872 0.172271 8.505875 65.187536 -4.669332 12.634663
2.400438 0.287118 0.370861 8.398206 55.879391 -5.493332 11.535997
2.408070 0.196197 0.598163 8.075198 47.242653 -6.958220 10.223701
2.416272 -0.413929 1.038411 7.477035 34.943693 -12.451552 7.415998
2.423890 -0.169878 0.775219 7.338261 26.245918 -16.754662 4.913480
2.431516 -0.009571 1.112583 6.876479 16.327403 -21.393475 3.234962
2.439718 0.112455 0.514420 6.926725 5.767998 -23.194067 1.953185
2.447328 0.375646 0.693869 6.558257 -4.913480 -20.966216 1.312296
2.455499 1.088656 0.425892 6.397949 -12.848292 -13.031404 2.319407
2.463789 1.313565 0.643623 6.251997 -17.029328 -3.814814 5.218665
2.471593 1.359026 0.418714 6.469729 -20.325327 5.645924 8.697775
2.480147 1.253749 0.086135 6.527152 -23.987548 16.144292 11.902219
2.488536 0.564666 0.722581 6.333348 -29.877621 23.804437 10.559404
2.497029 0.590985 0.736937 6.476907 -38.209174 30.152287 6.469924
2.505389 0.440248 0.708225 6.615680 -45.594653 36.103397 2.136296
2.513067 0.000000 0.646016 6.797522 -48.432875 38.697470 1.037629
2.521281 -0.406751 0.555095 6.833412 -50.843837 38.392285 3.051851
2.528929 -0.409143 0.069387 7.072677 -48.829615 38.056581 6.958220
2.537158 -0.162700 -0.789575 7.491391 -38.148137 41.444136 13.367107
2.544807 0.019141 -1.088656 7.931639 -26.856288 46.296579 18.738365
2.552468 -0.059816 -1.351848 8.412561 -13.214515 50.782800 24.384289
2.560696 -0.303867 -1.349455 8.623115 -1.342814 51.240577 28.931547
2.568338 -0.361290 -1.363811 8.596796 9.674368 47.822504 32.837916
2.576497 -0.177056 -1.576757 8.656612 20.935698 44.373913 35.615101
2.585441 0.545524 -1.339885 8.982012 31.708731 41.596728 39.277322
2.593666 1.138902 -1.402094 9.130357 39.643544 41.108432 41.261025
2.601306 1.488229 -2.048109 9.584960 52.735984 45.411542 40.620136
2.609646 0.794360 -1.540867 9.503610 62.044130 43.855098 36.896878
2.617968 0.112455 -0.823072 9.175817 62.379833 33.417768 30.152287
2.626359 -0.112455 -0.344542 8.970049 56.093020 20.355846 22.553179
2.634082 -0.203375 -0.059816 8.783422 46.418653 6.317331 14.557329
2.642306 -0.169878 -0.028712 8.678146 34.577471 -5.401776 6.286813
2.649929 -0.090921 0.047853 8.453236 24.292734 -13.794366 -0.579852
2.658148 0.299081 -0.358898 8.304892 15.991699 -16.205329 -4.547258
2.665796 0.758470 -0.394787 8.070412 13.245033 -12.329478 -5.218665
2.673945 0.933134 -0.634053 7.953172 13.733329 -4.272591 -2.594073
2.682964 0.832643 -0.478530 7.867037 15.076144 3.509629 0.518815
2.691152 0.555095 -0.289511 7.938816 16.479995 8.148442 1.770074
2.698770 0.267977 -0.193805 8.103909 15.228736 8.697775 1.800592
2.706959 0.102884 -0.038282 8.056056 11.474960 6.347850 0.244148
2.714593 0.031104 0.004785 8.036915 8.301035 3.875851 -1.709037
2.722194 -0.150737 0.105277 8.065627 5.127110 1.709037 -5.035554
2.730489 -0.320615 0.258406 8.103909 1.709037 0.183111 -7.965331
2.738083 -0.270370 0.303867 8.295322 -1.556444 0.335704 -9.033479
2.746266 -0.021534 -0.117240 8.312070 -2.075259 4.211554 -6.622517
2.753868 -0.043068 -0.366076 8.216364 2.014222 10.254219 -2.349925
2.761500 -0.263192 -0.423499 8.209186 7.660146 14.954070 1.464888
2.769699 -0.617304 -0.222517 8.402991 13.397626 17.761773 5.066073
2.777341 -0.992950 0.165093 8.570476 16.235847 15.381329 8.148442
2.785545 -1.122153 0.569451 8.716428 16.052736 8.026368 10.406812
2.793171 -1.174792 0.791968 8.620722 14.862514 -1.373333 12.665181
2.800810 -1.038411 0.768041 8.469985 13.702811 -9.399701 14.709922
2.808955 -0.713010 0.602948 8.352745 12.634663 -14.831996 17.944884
2.817241 -0.535954 0.349327 8.335997 11.658071 -16.968291 21.668142
2.825021 -0.251228 0.181841 8.202008 11.230811 -16.113773 24.689474
2.833403 0.239265 0.136381 8.115873 10.284738 -12.207404 26.551103
2.841117 0.535954 0.267977 8.103909 9.552293 -5.218665 26.459548
2.849331 0.631660 0.181841 8.178082 9.460738 2.533036 24.048585
2.856948 0.351720 0.122025 8.068020 10.040590 7.934812 20.844142
2.865170 0.119633 0.224909 8.041700 10.650960 8.972442 17.761773
2.872809 -0.260799 0.110062 8.010596 9.826960 6.866665 14.862514
2.880426 -0.418714 0.145952 8.005811 8.789331 3.204443 12.298959
2.888611 -0.423499 0.258406 7.945994 7.324442 -3.570666 11.810663
2.896238 -0.193805 0.227302 8.084768 5.310221 -8.056887 12.421033
2.904375 -0.035890 -0.002393 7.972314 3.295999 -9.735405 12.787255
2.913371 0.392395 0.057424 7.874215 2.380444 -6.866665 11.291849
2.922132 0.624482 0.425892 7.862252 2.227851 -1.678518 9.918516
2.931012 0.490493 0.456996 7.905319 1.648000 2.502518 9.277627
2.939515 0.253621 0.392395 7.843110 0.915555 4.058962 9.094516
2.948510 0.055031 0.129203 7.807221 0.854518 4.516739 9.521775
2.957237 0.033497 0.236872 7.828755 1.586962 4.272591 10.437330
2.966161 0.124418 0.172271 7.888571 2.105777 3.662221 11.780145
2.974899 0.071780 0.215339 7.910105 1.617481 3.631703 12.451552
2.983828 0.157915 0.081350 7.996240 0.061037 5.340739 12.787255
2.992585 0.265584 0.112455 7.972314 -2.624592 8.911405 11.841182
3.000821 0.251228 0.174664 8.204401 -5.737480 13.000885 10.956145
3.009179 -0.014356 0.174664 8.295322 -10.284738 15.655995 9.002960
3.016899 -0.232087 0.425892 8.608759 -14.831996 14.313181 6.653035
3.025250 -0.478530 0.509635 8.781030 -19.501328 9.796442 4.394665
3.034769 -0.669942 0.358898 8.821705 -23.255104 1.861629 1.129185
3.043874 -0.543132 0.265584 8.754711 -22.644734 -3.631703 -1.678518
3.052260 -0.488101 0.222517 8.635078 -20.294809 -7.415998 -3.112888
3.060480 -0.579022 0.122025 8.563298 -16.937773 -8.148442 -4.242073
3.068164 -0.624482 0.040675 8.529801 -14.069033 -6.378368 -3.997925
3.075864 -0.768041 0.047853 8.395813 -10.437330 -4.089480 -2.655110
3.084295 -0.887674 0.323008 8.434095 -8.606220 -2.471999 -0.152593
3.092789 -0.820679 0.638838 8.548943 -9.002960 -3.601184 4.547258
3.101152 -0.715403 0.636445 8.520231 -10.315256 -5.554369 9.308145
3.108784 -0.318223 0.502457 8.278573 -10.284738 -5.829035 13.641774
3.116995 0.124418 0.516813 8.221149 -7.690664 -3.967406 16.907254
3.124627 0.244050 0.456996 8.304892 -4.791406 0.824000 18.127995
3.132245 0.066994 0.519205 8.264217 -3.479110 4.943999 17.975402
3.140448 -0.361290 0.662764 8.283358 -3.540147 7.385479 16.388440
3.148068 -0.634053 0.703439 8.225935 -4.547258 5.371258 15.594958
3.156256 -0.930741 0.631660 8.068020 -6.500443 -0.793481 15.106662
3.163884 -0.928349 0.370861 7.857466 -8.056887 -7.385479 15.167699
3.172074 -0.662764 0.275155 7.778509 -9.186071 -11.688589 15.167699
3.179709 -0.301474 0.366076 7.788079 -9.887997 -12.512589 15.381329
3.187337 -0.033497 0.461782 7.831147 -11.169774 -10.467849 15.930662
3.195555 0.105277 0.497671 7.843110 -13.061922 -7.232887 16.693625
3.203187 0.234480 0.236872 7.843110 -14.923551 -2.807703 17.883847
3.211737 0.349327 -0.122025 7.807221 -16.449477 4.028443 20.966216
3.220108 0.411536 -0.055031 7.895749 -17.242958 10.559404 23.865474
3.227843 0.390002 0.069387 8.111087 -18.921476 14.679403 26.459548
3.236074 0.136381 0.076565 8.269002 -22.583697 15.259255 27.893918
3.243720 0.035890 -0.038282 8.338389 -27.375103 12.237922 28.138066
3.251937 -0.019141 -0.181841 8.213971 -31.495102 7.080294 27.314066
3.259577 0.241658 -0.217731 8.185260 -35.340434 3.814814 25.452437
3.267883 0.588592 0.105277 7.864644 -41.657765 1.831111 20.874660
3.276806 2.203632 -2.182098 8.699680 -35.737175 10.406812 12.359996
3.285026 3.005170 -4.022047 9.898398 -9.491256 30.518509 4.455702
3.292646 2.026576 -5.101132 11.649818 24.933622 42.054506 -6.744591
3.300850 -0.461782 -2.976458 10.805213 43.641469 19.867550 -22.217475
3.308518 -1.859090 -2.033753 10.893741 45.381024 -14.160588 -27.283547
3.316167 -1.792096 -1.306388 9.917539 44.373913 -40.284433 -20.477920
3.324521 -1.330314 -0.133988 9.592138 41.566210 -48.188726 -11.078219
3.332892 -0.622089 0.409143 9.123179 34.455397 -46.510208 -1.953185
3.340643 -0.471352 0.174664 8.948515 28.473769 -39.368877 1.586962
3.349013 -0.727366 -0.397180 9.106430 26.551103 -33.265175 3.601184
3.356759 -0.715403 -0.820679 9.151891 24.903104 -32.166509 3.570666
3.364967 -0.787182 -1.057552 9.127964 24.964141 -35.218360 3.509629
3.372596 -0.653194 -0.904422 9.060970 24.811548 -38.087100 5.127110
3.380796 -0.284725 -0.581414 8.891092 23.285623 -38.605914 6.073183
3.388427 0.052638 -0.189019 8.548943 20.111698 -34.913175 5.615406
3.396631 0.294296 0.145952 8.120658 15.625477 -28.473769 5.096591
3.404257 0.684298 0.253621 7.924461 11.871700 -18.768883 4.791406
3.411879 0.540739 0.382824 7.618201 9.918516 -8.789331 5.706961
3.419992 0.327793 0.279940 7.706729 7.049776 3.357036 7.477035
3.428134 0.119633 0.119633 7.919675 6.836146 11.230811 7.995849
3.435758 -0.205768 0.167486 8.010596 8.697775 14.282662 8.392590
3.444159 -0.595770 0.179449 8.359923 10.284738 12.787255 7.171850
3.452510 -0.464174 0.117240 8.491519 9.949034 9.369182 3.692740
3.460674 -0.014356 0.078957 8.434095 9.582812 6.378368 0.549333
3.468325 0.339756 0.076565 8.371886 8.423109 4.821924 -1.953185
3.476894 0.502457 -0.014356 8.467592 6.988739 6.225776 -3.509629
3.484531 0.447426 0.021534 8.630293 6.317331 7.049776 -4.181036
3.493028 0.294296 -0.004785 8.948515 6.134220 4.760887 -6.134220
3.501483 0.325401 0.014356 9.194958 5.645924 0.122074 -7.904294
3.509807 0.279940 0.014356 9.252382 4.821924 -6.042665 -9.094516
3.517415 0.375646 0.124418 9.099252 3.448592 -13.000885 -9.887997
3.525624 0.626875 0.174664 8.888699 1.556444 -18.158513 -10.223701
3.533269 0.913993 0.315830 8.675753 -0.915555 -20.722068 -10.773034
3.541434 1.440376 0.342149 8.479556 -4.272591 -20.935698 -9.460738
3.549854 1.995471 0.155522 8.115873 -6.988739 -15.350810 -6.988739
3.558199 2.402222 -0.014356 8.156548 -7.263405 -6.866665 -5.493332
3.566522 2.505106 -0.131596 8.245076 -6.591998 1.648000 -3.875851
3.574110 2.550566 -0.205768 8.367101 -4.821924 7.568590 -2.777184
3.582274 2.548173 -0.236872 8.797778 -2.960295 10.071108 -3.265481
3.589898 2.667806 -0.155522 9.068148 -1.464888 9.247108 -4.577776
3.597486 2.820936 -0.088528 9.242811 -0.213630 6.622517 -5.920591
3.605655 3.187011 0.050246 9.288272 1.037629 4.516739 -7.721183
3.613261 3.840205 0.272762 9.398334 1.403851 3.692740 -7.843257
3.620851 4.596283 0.492886 9.580175 0.274667 4.638813 -5.493332
3.628402 5.349968 0.416321 9.704593 -0.946074 7.354961 -2.716147
3.636569 5.905063 0.016749 9.630421 -0.762963 11.108737 -0.396741
3.644198 6.120402 -0.246443 9.874471 2.502518 15.137181 0.976592
3.652391 6.082119 -0.229695 10.199872 7.965331 16.418958 2.014222
3.660024 5.905063 0.145952 10.704721 13.672292 15.015107 4.242073
3.667672 5.739970 0.533561 11.020551 19.165624 11.139256 8.301035
3.675888 5.596411 0.978594 11.302884 23.224586 4.058962 11.505478
3.683527 5.538987 1.117368 11.295706 25.177770 -3.845332 12.024293
3.691170 5.531809 1.225037 10.994232 27.314066 -11.841182 12.115848
3.699394 5.768682 1.397308 10.398462 28.992584 -18.341624 11.352886
3.707058 5.905063 0.846999 9.891220 29.358806 -24.292734 10.040590
3.715292 6.579791 0.727366 9.879257 31.037324 -26.825770 8.453627
3.722929 6.488870 0.612519 9.740483 35.920286 -28.687399 8.575701
3.731299 6.098868 0.940312 9.970177 38.758507 -30.945769 7.782220
3.739108 5.921812 1.342277 10.034779 35.187841 -33.356731 3.387555
3.747448 5.957701 1.344670 9.247597 30.732139 -35.523545 -3.112888
3.755171 5.605982 0.646016 8.735569 27.283547 -36.011841 -14.587848
3.763408 5.184875 1.189148 8.151762 25.116733 -33.753471 -21.973327
3.771631 4.763768 1.990686 8.161333 17.700735 -32.349620 -25.086215
3.779267 4.825977 2.155779 8.216364 7.110813 -29.175695 -25.666066
3.786889 5.024567 1.454732 8.077590 -4.913480 -22.156438 -24.140141
3.795070 4.414441 0.495279 7.886178 -11.780145 -13.122959 -22.400586
3.802714 3.962230 0.545524 8.627900 -11.993774 -5.645924 -23.194067
3.810339 1.476266 1.306388 8.666182 -14.404736 0.030519 -19.592883
3.818540 -0.643623 3.591369 9.209314 -18.219550 -1.068148 -17.578661
3.826172 -1.583935 4.022047 9.285879 -25.147252 -9.308145 -18.585772
3.833803 -2.136637 3.445418 8.929374 -33.143101 -23.621326 -20.905179
3.842018 -1.875838 2.316086 8.417347 -38.850063 -29.786065 -23.560289
3.849652 -2.189276 1.131724 7.969921 -43.427839 -27.222510 -27.771844
3.857293 -2.521854 0.191412 7.426789 -47.090060 -21.179846 -29.511399
3.865663 -2.921427 -0.875710 7.189917 -50.263985 -13.702811 -29.175695
3.874042 -3.526768 -1.883016 6.730528 -52.369762 -11.566515 -23.957030
3.882419 -4.191925 -2.607990 6.223286 -54.506058 -14.557329 -16.663106
3.890048 -4.507755 -2.722837 6.220893 -53.529466 -13.214515 -11.139256
3.898265 -4.699167 -2.055287 6.309421 -51.484725 -4.577776 -4.272591
3.905876 -5.194446 -1.026447 6.522367 -46.906949 11.597034 4.608295
3.914069 -6.036659 -0.375646 6.747276 -36.774804 28.778954 15.045625
3.921708 -6.811878 -0.665157 7.359795 -25.727103 40.284433 20.142216
3.929921 -7.177953 -1.385345 7.943602 -13.092441 43.885617 24.872585
3.937555 -7.297586 -2.387866 8.278573 -0.518815 40.345470 30.335398
3.945190 -7.201880 -3.141551 8.469985 10.376293 31.373028 34.669027
3.953391 -6.663533 -3.727750 8.467592 24.597919 14.984588 39.796136
3.961035 -6.232856 -3.804315 8.271395 34.638508 0.122074 42.542802
3.969290 -5.483956 -3.141551 8.022559 43.885617 -15.167699 42.817469
3.977716 -4.778124 -2.206024 7.823969 45.533616 -21.485031 41.016877
3.986061 -4.160820 -1.337492 7.405255 41.962951 -19.867550 36.652730
3.993703 -3.500449 -0.777612 6.988934 35.828730 -11.383404 29.938658
4.001916 -2.997992 -0.483316 7.036787 28.931547 2.441481 23.499252
4.009978 -2.902286 0.055031 7.168383 25.025178 15.594958 19.867550
4.018625 -2.935783 0.741722 7.555992 22.247993 25.391400 16.174810
4.027640 -3.371245 1.119761 8.269002 19.653920 27.069918 11.261330
4.036016 -3.545909 1.160436 8.613544 15.625477 22.461623 7.507553
4.044507 -3.768426 0.918778 8.721213 10.040590 15.686514 4.333628
4.052847 -3.770818 0.220124 8.623115 6.988739 10.101627 2.136296
4.061145 -3.134373 -0.480923 8.343175 6.164739 4.058962 -1.983703
4.069621 -2.753941 -0.758470 8.089554 7.507553 -0.061037 -4.882962
4.077812 -2.529032 -0.928349 7.608631 10.406812 -1.556444 -6.836146
4.085435 -2.426148 -0.753685 7.453108 13.122959 -1.556444 -8.209479
4.093626 -2.407007 -0.339756 7.163598 14.954070 1.831111 -8.911405
4.101238 -2.373510 0.007178 7.180346 15.442366 7.995849 -10.010071
4.108852 -2.414185 0.346934 7.443538 15.503403 13.794366 -10.284738
4.117085 -2.756334 0.724973 7.654091 15.655995 19.898068 -9.704886
4.124716 -2.983636 0.693869 8.017774 14.038514 22.339549 -8.209479
4.132868 -3.072164 0.392395 8.202008 11.963256 23.194067 -6.805628
4.141884 -3.143944 0.016749 8.108695 11.261330 23.987548 -4.913480
4.150103 -3.311429 -0.215339 8.230720 12.207404 24.323252 -2.594073
4.158318 -3.742106 -0.315830 8.450844 13.183996 24.353771 -1.068148
4.165957 -4.132109 -0.078957 8.580047 13.428144 24.384289 -0.701926
4.173597 -4.629780 0.480923 8.781030 12.268441 24.719993 -0.244148
4.181817 -5.079598 0.677120 8.850417 8.606220 24.781030 -0.152593
4.189442 -5.675369 0.638838 8.946123 3.906369 26.154363 0.091556
4.197073 -6.481692 0.502457 8.824097 -1.373333 28.290658 -1.098666
4.205271 -7.197095 0.509635 9.003546 -7.293924 29.602954 -3.234962
4.212891 -7.455501 0.665157 9.049007 -13.855403 30.610065 -4.852443
4.220535 -7.398077 0.552702 9.017902 -21.637623 28.199103 -5.310221
4.228889 -7.012860 0.392395 8.955693 -26.062807 23.621326 -4.333628
4.236518 -6.831019 0.351720 8.685324 -26.245918 17.578661 -1.312296
4.244953 -6.890835 0.650801 8.764281 -23.987548 5.951109 5.066073
4.253305 -7.256911 0.902029 8.747533 -23.743400 -7.873775 9.277627
4.261509 -7.065499 0.684298 8.446059 -23.285623 -22.400586 12.054811
4.269155 -6.503226 -0.038282 8.391028 -20.599994 -32.044435 13.245033
4.277382 -6.024696 -0.399573 8.429310 -14.587848 -36.439100 11.658071
4.285034 -5.649049 -0.272762 8.627900 -9.826960 -34.882656 8.880886
4.293227 -5.347575 -0.454604 8.422132 -3.540147 -29.084140 5.645924
4.300847 -5.438496 -0.519205 8.163726 8.819849 -28.534806 3.143406
4.308482 -4.955181 -0.567058 7.063106 24.506363 -30.152287 1.312296
4.316679 -4.742235 -1.091049 6.558257 42.054506 -38.972137 -2.655110
4.324433 -3.579406 -1.394916 6.390771 57.924131 -38.087100 -9.918516
4.332073 -2.806580 -1.155651 6.429054 66.896573 -33.143101 -19.104587
4.340246 -2.069643 -0.119633 6.931510 71.199683 -25.788141 -24.048585
4.348674 -1.088656 0.756078 7.536851 69.704276 -20.294809 -26.245918
4.357198 -0.023927 0.916385 8.505875 61.311686 -17.975402 -30.274361
4.365535 -0.169878 1.571972 8.024952 49.623096 -17.639698 -31.037324
4.374020 0.394787 1.538475 7.536851 35.126804 -17.365032 -30.091250
4.383100 1.205896 2.363939 7.369366 18.372143 -14.465773 -24.445326
4.392145 2.576885 2.686947 6.988934 -5.279702 -8.026368 -13.153478
4.401205 3.806708 2.555351 6.424268 -24.445326 2.594073 -4.486221
4.410234 4.876223 2.392651 6.275924 -30.549028 17.822810 -1.464888
4.418817 4.507755 2.325657 7.020038 -24.903104 35.401471 1.556444
4.427130 3.560265 2.246699 7.828755 -21.637623 48.249763 6.408887
4.434861 3.411921 2.301730 8.572869 -22.919401 56.367687 10.864589
4.443101 3.620081 2.206024 8.891092 -25.116733 58.168279 10.681478
4.451309 4.067507 2.476394 9.221278 -26.032289 52.003540 8.575701
4.458932 3.524375 2.639094 8.826490 -27.558214 38.758507 10.223701
4.466956 2.744371 2.631916 8.484341 -31.922361 23.194067 17.639698
4.475568 3.005170 2.390258 8.245076 -36.347545 10.864589 27.741325
4.484147 3.940696 1.894980 8.321641 -42.481765 7.232887 36.378063
4.492366 4.993463 1.239393 8.340782 -46.601764 11.993774 42.512284
4.500007 5.369109 0.796753 8.388635 -46.449171 20.569475 46.174505
4.507660 5.407392 0.607733 8.431703 -45.106357 29.419843 47.273171
4.516031 5.393036 0.315830 9.025080 -44.740135 35.676138 43.763543
4.523698 5.450459 -0.126811 9.515574 -46.937468 38.026063 38.148137
4.532054 5.141807 -0.033497 9.596924 -50.416578 36.072878 34.730064
4.539874 4.974322 -0.555095 9.735698 -51.423688 31.647694 34.028138
4.548236 4.546037 -1.036018 9.867293 -48.982208 27.161473 32.074953
4.555978 4.373766 -1.308780 10.063491 -43.305765 23.041475 28.138066
4.564215 4.103397 -1.227430 9.962999 -34.150212 20.050661 26.581622
4.572925 3.110446 -1.287246 11.042085 -25.452437 7.049776 22.827845
4.580896 4.048366 -1.691604 10.886563 -14.404736 -3.814814 19.592883
4.589391 4.160820 -2.052895 10.309934 -2.105777 -10.406812 16.327403
4.597605 3.115232 -2.012220 10.161589 8.880886 -18.860439 12.268441
4.605250 2.746764 -2.311301 9.965392 17.395550 -26.917325 11.108737
4.613406 2.615168 -2.550566 9.726127 27.802362 -37.507248 10.467849
4.622531 2.160564 -1.957189 9.568212 36.713767 -50.386059 7.385479
4.631410 1.969152 -1.531297 9.281094 40.284433 -62.135685 3.997925
4.640360 2.359154 -1.222645 8.477163 40.559099 -64.149907 1.678518
4.649316 2.265841 -0.724973 8.149370 36.683248 -61.006500 -0.061037
4.657776 2.442897 -0.232087 8.125443 30.701621 -53.956725 0.946074
4.666115 2.605597 0.074172 7.948387 24.964141 -45.930357 3.906369
4.674635 2.251485 0.071780 8.003418 20.874660 -36.896878 6.012146
4.683138 1.906943 -0.507242 8.024952 19.623402 -28.382214 6.103702
4.691502 1.777740 -0.138774 8.032130 21.973327 -18.768883 5.127110
4.699126 -0.473745 0.131596 9.395941 20.447401 -22.339549 3.448592
4.706722 3.129588 -0.437855 8.199615 23.743400 -17.975402 3.326518
4.715051 3.588977 0.234480 7.945994 22.431104 5.523850 5.432295
4.723499 3.340141 0.823072 8.111087 14.526811 33.539842 8.850368
4.731980 1.940440 0.765648 8.848024 4.516739 47.120579 9.887997
4.739597 0.674728 0.593377 9.618458 -4.577776 48.249763 7.873775
4.747920 -0.447426 0.557488 10.465456 -13.031404 38.666952 4.119999
4.756274 -0.191412 0.306259 10.427174 -18.158513 23.346660 -0.122074
4.763929 -0.035890 -0.107669 10.597052 -18.585772 13.550218 -3.357036
4.772434 0.354112 -0.325401 10.159197 -14.404736 2.319407 -5.737480
4.780950 0.736937 -0.339756 9.534715 -7.507553 -1.678518 -3.784295
4.789271 0.318223 -0.480923 9.427046 1.617481 -8.331553 -2.258370
4.797697 0.071780 -0.392395 9.180602 10.437330 -17.700735 -2.197333
4.805508 0.052638 -0.392395 9.092074 19.409772 -26.978362 -3.021332
4.813992 0.413929 -0.143559 8.824097 26.215400 -34.852138 -4.303110
4.822330 0.662764 0.287118 8.580047 30.823695 -39.063692 -4.028443
4.829960 0.693869 0.466567 8.156548 31.403546 -39.277322 -2.594073
4.838305 0.837428 0.559880 7.826362 29.694510 -34.730064 -1.312296
4.845939 0.882888 0.760863 7.735441 27.436140 -29.358806 -0.579852
4.854366 0.913993 0.851784 7.785687 23.957030 -20.691549 -0.091556
4.863366 0.992950 0.811109 7.998633 20.233772 -11.352886 -0.305185
4.872437 0.890066 0.808716 8.391028 16.327403 -4.974517 -1.312296
4.881486 0.815894 0.878103 8.501090 12.207404 -3.540147 -2.166814
4.890547 0.564666 0.760863 8.369494 9.674368 -5.615406 -2.044740
4.899681 0.330186 0.693869 8.300107 7.538072 -9.338664 -1.251259
4.908545 0.437855 0.488101 8.079983 6.073183 -10.406812 -0.457778
4.917575 0.698654 0.373254 7.977099 5.890072 -8.239998 0.579852
4.926644 0.634053 0.282333 8.020167 8.148442 -2.807703 2.258370
4.935624 0.409143 0.184234 8.393420 11.017182 2.075259 3.204443
4.944742 0.059816 0.404358 8.826490 13.428144 2.929777 3.662221
4.953794 -0.179449 0.526383 9.104038 13.977477 -1.251259 3.204443
4.962843 -0.200983 0.583807 8.926981 14.709922 -6.530961 2.624592
4.971944 -0.363683 0.614911 8.869558 13.245033 -12.604144 1.922666
4.980834 -0.189019 0.665157 8.666182 12.146367 -15.991699 1.251259
4.989319 -0.038282 0.906815 8.273788 11.017182 -17.242958 0.335704
4.997831 0.076565 1.033625 8.079983 10.620441 -16.754662 0.396741
5.006148 0.155522 1.167614 8.039308 9.857479 -14.557329 1.648000
5.013758 0.275155 1.052767 7.972314 9.033479 -11.658071 2.716147
5.021368 0.198590 0.827857 8.113480 8.362072 -8.789331 3.601184
5.030912 0.189019 0.739329 8.273788 7.477035 -7.415998 3.723258
5.039998 0.351720 0.784790 8.185260 5.737480 -6.378368 2.807703
5.049040 0.174664 0.964238 8.182867 2.868740 -3.906369 2.288888
5.058069 -0.004785 0.892459 8.151762 0.610370 -2.685629 2.044740
5.067128 0.143559 1.091049 8.089554 -1.251259 -1.464888 1.922666
5.076388 0.028712 1.143687 8.180474 -2.746666 0.671407 2.655110
5.085502 -0.074172 1.110190 8.295322 -3.601184 2.868740 3.601184
5.094561 -0.172271 0.935527 8.331211 -4.150517 1.525925 4.181036
5.103602 -0.031104 0.858962 8.458022 -4.394665 -3.448592 4.425184
5.112655 0.059816 0.679513 8.505875 -4.364147 -10.162664 5.188147
5.121751 0.100491 0.686691 8.326426 -5.127110 -15.259255 5.279702
5.130839 0.519205 0.710617 8.099124 -7.080294 -16.174810 5.737480
5.139964 0.705832 0.727366 7.881393 -8.575701 -13.367107 5.279702
5.148850 0.574236 0.768041 7.697159 -10.864589 -8.697775 5.218665
5.157400 0.523991 0.837428 7.591882 -12.329478 -2.960295 5.737480
5.166447 0.650801 0.732151 7.658876 -13.275552 5.462813 6.988739
5.175117 0.636445 0.545524 7.783294 -13.702811 10.620441 7.721183
5.183481 0.492886 0.504849 8.127836 -13.641774 12.054811 9.155553
5.191828 0.263192 0.277548 8.175689 -12.268441 13.336589 11.169774
5.200235 0.141166 0.086135 8.508267 -9.887997 13.031404 10.406812
5.208768 0.014356 0.021534 8.769066 -6.164739 11.200293 8.178961
5.217115 -0.019141 0.227302 8.848024 -3.662221 7.049776 6.164739
5.224718 0.004785 0.385217 8.941337 -1.709037 1.342814 4.699850
5.233214 0.208161 0.370861 8.883914 -0.274667 -3.234962 3.479110
5.241691 0.478530 0.366076 8.694894 0.640889 -3.936888 2.624592
5.249353 0.526383 0.440248 8.771459 -0.030519 -1.922666 1.556444
5.257657 0.674728 0.344542 8.589618 -0.183111 0.671407 0.000000
5.265962 0.528776 0.339756 8.462807 -0.213630 1.770074 -0.549333
5.273569 0.363683 0.220124 8.364708 0.274667 2.471999 -0.152593
5.281915 0.296689 0.236872 8.431703 1.739555 1.800592 1.617481
5.290394 0.375646 0.210553 8.498697 2.685629 0.030519 2.502518
5.298702 0.526383 0.267977 8.546550 2.533036 -1.831111 2.868740
5.307006 0.557488 0.212946 8.642256 2.410962 -2.594073 2.960295
5.314600 0.440248 0.464174 8.711643 0.885037 -2.655110 3.418073
5.322194 0.413929 0.610126 8.654219 -1.678518 -2.441481 3.051851
5.330504 0.461782 0.495279 8.917411 -3.540147 -1.464888 1.739555
5.338097 0.442640 0.413929 8.795386 -4.516739 -1.007111 -0.732444
5.345684 0.490493 0.399573 8.529801 -3.967406 -1.709037 -2.746666
5.353273 0.509635 0.320615 8.458022 -3.418073 -3.234962 -3.967406
5.361434 0.557488 0.401965 8.374279 -3.234962 -3.723258 -4.791406
5.369031 0.717795 0.490493 8.304892 -4.181036 -1.648000 -5.127110
5.376611 0.904422 0.693869 8.242683 -5.157628 2.410962 -5.096591
5.384775 0.887674 0.801538 8.235505 -6.073183 6.195257 -5.157628
5.392954 0.593377 0.746507 8.450844 -7.415998 8.941923 -4.852443
5.400544 0.485708 0.638838 8.333604 -8.941923 9.582812 -5.218665
5.408149 0.454604 0.567058 8.431703 -9.826960 9.399701 -4.394665
5.415744 0.610126 0.282333 8.534587 -10.681478 9.704886 -3.967406
5.423945 0.789575 0.114847 8.520231 -11.505478 11.474960 -3.631703
5.431578 0.897244 -0.007178 8.467592 -12.207404 14.587848 -2.655110
5.439208 0.882888 -0.002393 8.426917 -13.000885 18.097476 -1.464888
5.447423 0.935527 0.100491 8.400598 -14.160588 23.560289 -0.274667
5.455067 0.758470 0.071780 8.556120 -13.977477 27.344584 0.427259
5.463215 0.514420 0.117240 8.819312 -12.787255 29.633473 0.915555
5.471543 0.143559 0.117240 9.068148 -11.078219 27.130955 -0.305185
5.479817 0.064602 0.016749 9.182995 -9.613330 21.271401 -2.105777
5.488157 0.088528 -0.086135 9.180602 -8.270516 14.587848 -3.784295
5.496360 0.409143 -0.363683 9.154283 -7.324442 6.775109 -5.340739
5.503956 0.861354 -0.684298 9.099252 -5.493332 2.227851 -6.073183
5.511543 1.287246 -0.815894 9.151891 -2.533036 -1.617481 -7.141331
5.519696 1.780132 -0.806323 8.989190 0.793481 -4.394665 -7.599109
5.527300 2.263448 -0.851784 9.041829 4.272591 -5.951109 -8.545183
5.534888 2.698910 -0.971416 9.072933 7.415998 -6.408887 -10.681478
5.543068 3.108054 -0.969024 9.113608 10.742515 -5.951109 -14.343699
5.550705 3.610511 -0.813501 9.218885 13.092441 -5.798517 -18.921476
5.558335 4.110575 -0.485708 9.462935 14.374218 -6.378368 -24.292734
5.566534 4.534074 -0.394787 9.697415 13.977477 -7.812738 -29.175695
5.574171 5.067635 -0.215339 9.711771 12.817774 -11.017182 -33.204138
5.581818 5.656227 -0.112455 9.752446 10.284738 -14.404736 -37.079989
5.590027 6.247212 0.246443 9.891220 6.530961 -16.296884 -39.582507
5.597661 6.704209 0.413929 10.034779 3.845332 -19.318216 -39.857173
5.605807 7.355010 0.519205 10.286007 3.418073 -22.095401 -39.063692
5.614239 7.637342 0.569451 10.319504 4.943999 -21.301920 -42.756432
5.623169 7.493783 0.758470 10.159197 7.080294 -20.722068 -45.350505
5.632250 7.488998 1.552831 10.209442 4.455702 -18.341624 -44.648579
5.641019 7.551207 1.859090 10.085025 -4.882962 -16.022217 -41.077914
5.649943 7.474642 1.777740 9.678274 -18.494217 -15.350810 -31.617176
5.658152 7.924461 1.672463 9.235633 -33.021027 -14.709922 -16.846217
5.666684 8.290536 1.351848 8.668575 -43.977172 -8.819849 -2.044740
5.675616 8.266610 0.995343 8.063234 -50.691244 4.760887 12.604144
5.683891 7.555992 0.368468 7.606238 -50.538652 19.409772 22.644734
5.692291 6.979363 0.866140 8.056056 -47.181616 32.990509 31.708731
5.700076 6.357274 1.026447 8.352745 -41.810358 44.221320 38.239692
5.708431 5.639479 0.303867 8.795386 -30.152287 52.278207 43.794061
5.716160 4.378552 0.423499 9.393548 -14.313181 54.475539 45.808283
5.724400 3.502841 0.684298 10.388891 -0.335704 51.942503 49.348430
5.732056 2.753941 0.203375 10.695151 12.482070 46.449171 50.935392
5.740294 1.813630 -0.191412 10.609015 25.482955 38.789026 51.759392
5.747955 -1.280068 -1.045589 12.281478 38.361766 -6.286813 33.906064
5.756169 -0.701047 -0.428285 11.642640 59.358501 -53.193762 25.757622
5.763834 0.133988 0.200983 10.448708 64.149907 -84.200568 23.529771
5.771493 -0.131596 0.390002 10.451100 55.299539 -115.512558 15.015107
5.780059 2.545781 0.942705 8.759496 34.791101 -115.756706 10.376293
5.788571 3.167870 1.033625 7.752190 9.125034 -93.539232 14.587848
5.796772 1.883016 0.969024 7.244948 -14.252144 -64.821314 19.226661
5.804424 -0.069387 1.021662 6.553471 -30.274361 -40.925321 21.301920
5.812648 -0.961846 -0.138774 5.488742 -36.957915 -21.546068 19.318216
5.820292 -3.732536 -1.792096 6.646785 -34.028138 -17.609180 9.704886
5.827873 -4.311557 -2.844862 6.991327 -24.048585 -12.329478 -3.753777
5.836083 -3.679897 -2.316086 5.936167 -9.735405 -0.793481 -14.923551
5.843722 -5.177697 -1.847127 6.613288 -7.049776 3.814814 -17.853328
5.851331 -7.256911 -1.524119 7.474642 -9.735405 -2.105777 -18.066958
5.858938 -8.290536 0.478530 7.862252 -13.367107 -10.681478 -12.268441
5.867278 -8.752318 2.569707 8.379064 -21.057772 -12.970367 -0.427259
5.875799 -8.900662 3.017133 8.467592 -31.983398 -9.704886 12.237922
5.883615 -8.108695 1.784918 8.271395 -35.493027 0.549333 22.949919
5.891974 -7.398077 -0.162700 7.969921 -24.140141 20.081179 32.532731
5.899730 -7.331083 -2.036146 8.369494 -8.301035 27.558214 36.011841
5.907947 -7.347832 -3.222901 8.209186 18.158513 24.201178 37.629322
5.915587 -7.063106 -3.699039 8.230720 34.455397 13.000885 35.828730
5.923787 -6.225678 -3.679897 8.670968 48.860134 -2.014222 32.441176
5.931414 -5.488742 -3.268361 8.714035 55.299539 -14.221625 30.365917
5.939620 -4.936039 -2.634309 8.694894 57.954649 -26.642659 22.888882
5.947263 -4.924076 -1.720316 8.453236 55.543687 -36.500137 12.665181
5.954900 -4.876223 -0.401965 7.977099 48.677023 -42.207099 2.349925
5.963236 -4.450331 0.988165 7.663662 37.873470 -44.007691 -4.760887
5.971497 -3.632044 1.911728 7.419611 29.023103 -40.437025 -9.094516
5.979837 -2.993207 2.373510 7.206665 23.621326 -30.732139 -11.078219
5.987587 -2.557744 2.507498 7.139671 22.034364 -18.585772 -11.291849
5.995807 -2.567315 2.050502 7.216236 21.240883 -1.434370 -10.956145
6.004008 -2.703696 1.303995 7.400470 21.301920 10.864589 -10.925626
6.011635 -2.859218 0.698654 7.436360 23.743400 15.655995 -9.582812
6.019270 -3.191797 0.019141 7.472250 28.504288 13.885922 -8.117924
6.027605 -3.395172 -0.191412 7.536851 32.349620 8.514664 -7.446516
6.036473 -3.347319 -0.239265 7.510532 34.180731 4.791406 -7.934812
6.045745 -3.148729 0.256014 7.747404 33.509323 6.042665 -10.559404
6.054696 -3.172655 0.887674 7.874215 33.143101 10.376293 -12.146367
6.063845 -3.407135 1.344670 8.084768 32.776879 13.397626 -11.291849
6.072410 -3.474129 1.557616 8.319248 31.006806 16.083254 -10.956145
6.081922 -3.366460 1.737065 8.493912 29.633473 19.867550 -9.918516
6.090770 -3.730143 1.981115 8.740355 29.297769 23.926511 -8.697775
6.099857 -4.108182 2.148601 8.862380 28.351695 25.147252 -8.239998
6.108871 -4.476650 1.961974 9.034651 25.025178 24.170660 -6.347850
6.117824 -4.562786 1.892587 8.895877 21.698660 23.071993 -2.960295
6.126781 -4.670455 1.811237 8.692502 18.250069 27.100436 -0.213630
6.135705 -4.847511 1.641359 8.441273 15.472884 32.807398 1.892148
6.144776 -4.912113 1.478658 8.489126 11.078219 40.864284 1.068148
6.153699 -5.070028 1.466695 8.541765 8.667257 48.371838 -1.831111
6.162416 -5.311686 1.674856 8.769066 7.385479 53.041169 -4.516739
6.171319 -5.620338 1.576757 8.694894 6.164739 54.536576 -7.660146
6.180074 -6.230464 1.495407 8.661397 6.317331 52.705466 -10.742515
6.189040 -6.756847 1.387738 8.496304 6.775109 48.585467 -14.007996
6.197959 -7.189917 0.691476 8.113480 7.904294 42.664876 -17.700735
6.206882 -7.084640 0.064602 7.725871 12.726218 32.898953 -20.661031
6.215802 -6.273531 -0.275155 7.740226 17.822810 21.179846 -21.668142
6.224745 -5.070028 -0.260799 7.816791 22.156438 9.216590 -20.447401
6.233701 -4.223029 -0.019141 8.008203 26.154363 -1.312296 -19.714957
6.242474 -3.452596 0.488101 8.278573 26.612140 -9.704886 -16.846217
6.251419 -4.110575 0.210553 7.587097 25.666066 -13.519700 -13.977477
6.260533 -3.450203 0.717795 7.352617 22.827845 -22.583697 -9.765923
6.269447 -3.340141 1.189148 6.871694 21.179846 -37.446211 -15.625477
6.278365 -2.079214 1.753813 6.632429 18.646809 -42.970061 -27.222510
6.287302 -1.172399 1.892587 6.419483 13.306070 -38.056581 -38.209174
6.296244 -0.110062 2.088784 6.364452 7.477035 -27.039399 -41.749321
6.304776 1.107797 2.110318 6.706601 1.831111 -11.535997 -35.706656
6.313766 1.746635 1.452339 6.948259 -1.983703 1.098666 -27.100436
6.322622 2.380688 1.277676 7.254518 -2.716147 5.554369 -17.853328
6.331522 2.919034 1.540867 7.575134 -2.349925 5.188147 -12.817774
6.340274 2.710874 1.734672 7.821577 -6.195257 5.737480 -10.956145
6.349175 2.452467 2.232344 8.132621 -14.923551 7.873775 -12.329478
6.358074 2.567315 2.648665 8.137407 -31.739250 15.015107 -13.855403
6.366989 2.371117 2.911856 7.862252 -48.707541 21.271401 -14.313181
6.375780 2.562529 2.610382 8.010596 -65.065462 27.985473 -9.765923
6.384277 3.706217 1.098227 8.314463 -76.082644 35.004730 -4.638813
6.392483 4.390515 1.574364 8.032130 -82.522050 55.543687 2.471999
6.400094 4.081863 1.519333 8.560906 -83.864864 67.445906 7.934812
6.408233 4.148857 0.643623 9.912754 -78.524125 75.136570 13.946959
6.416434 4.589105 0.272762 11.070797 -69.643239 77.608570 19.379254
6.424689 4.270882 -0.016749 11.338774 -61.647389 76.479385 29.480880
6.432518 3.744499 -0.069387 11.757488 -54.017762 65.401166 41.291543
6.440819 2.887930 0.007178 11.616321 -48.707541 50.996429 55.848872
6.449177 2.280197 0.433070 11.286135 -41.383099 39.124729 68.788720
6.457411 1.423627 -0.392395 11.068404 -31.769768 32.807398 75.685904
6.466591 1.514548 -0.112455 10.975091 -19.104587 18.738365 80.538347
6.475650 2.311301 0.279940 10.936808 -6.622517 -3.295999 84.139531
6.484177 3.486093 -0.083743 10.958342 8.697775 -27.680288 86.886196
6.492390 4.034010 -0.971416 10.888955 23.377178 -43.641469 85.573901
6.500939 4.124931 -1.576757 10.738218 33.936583 -56.001465 81.087680
6.509489 4.871438 -1.493014 9.955821 39.124729 -68.300424 68.056276
6.517853 5.503098 -1.036018 9.331339 39.155248 -76.448866 49.256874
6.526322 6.101260 -0.521598 8.525016 38.056581 -76.052126 25.940733
6.534689 6.244819 0.086135 8.130229 33.661916 -68.178350 10.467849
6.542879 6.036659 0.894852 7.670840 21.637623 -58.900723 1.098666
6.551107 5.682546 1.026447 7.371758 3.875851 -48.188726 -5.676443
6.559434 5.716044 0.555095 7.228199 -7.873775 -36.744285 -10.986663
6.567255 5.775860 0.129203 7.400470 -13.428144 -25.299844 -18.097476
6.575626 6.247212 0.050246 7.644520 -14.862514 -15.472884 -26.306955
6.583331 6.244819 -0.287118 7.833540 -14.313181 -3.295999 -35.523545
6.591547 5.431318 -0.189019 7.484213 -11.230811 8.667257 -40.711692
6.599182 4.567571 -0.131596 7.893356 -8.178961 20.386364 -41.413617
6.607395 3.445418 0.401965 8.489126 -4.119999 30.823695 -38.331248
6.615027 2.368725 1.040803 9.094467 -0.579852 36.988433 -34.607990
6.623212 1.287246 1.359026 9.403119 1.983703 37.293619 -28.290658
6.631708 0.466567 1.457125 9.541893 2.349925 31.983398 -18.280587
6.640051 0.066994 0.820679 9.446187 1.678518 25.025178 -6.469924
6.648245 -0.165093 0.059816 9.465328 3.967406 20.386364 3.082369
6.655866 -0.038282 -0.062209 9.446187 8.362072 16.724143 7.812738
6.664009 -0.011963 -0.011963 9.549071 13.519700 11.444441 10.254219
6.672231 -0.313437 0.009571 9.556249 15.106662 4.547258 13.245033
6.680652 -0.401965 0.466567 9.422260 12.207404 -3.662221 14.679403
6.689169 -0.162700 0.818287 9.032258 6.408887 -9.857479 14.648885
6.697349 -0.019141 0.868532 8.874343 1.037629 -11.291849 13.824885
6.704982 0.239265 1.069515 8.592010 -3.692740 -10.559404 12.390515
6.712622 0.390002 0.801538 8.367101 -5.767998 -9.216590 10.315256
6.720823 0.342149 0.569451 7.989062 -6.653035 -6.408887 7.141331
6.728417 0.234480 0.612519 7.838325 -5.767998 -2.563555 5.218665
6.736587 0.093313 0.478530 7.792865 -4.486221 3.448592 3.906369
6.744180 -0.217731 0.224909 8.046486 -3.143406 10.406812 3.295999
6.751802 -0.440248 0.222517 8.273788 -2.319407 15.503403 1.861629
6.759997 -0.736937 0.110062 8.702072 -1.159703 16.571551 0.579852
6.767633 -0.768041 -0.090921 8.893484 -0.366222 13.092441 0.335704
6.775266 -0.765648 -0.172271 9.113608 0.701926 5.340739 0.335704
6.783439 -0.760863 -0.258406 9.161461 2.166814 -2.960295 0.671407
6.791036 -0.576629 -0.129203 8.943730 3.814814 -8.697775 -0.183111
6.798636 -0.648408 0.119633 8.642256 4.852443 -11.108737 -1.373333
6.806833 -0.748900 0.454604 8.508267 6.103702 -11.963256 -2.288888
6.814452 -0.758470 0.653194 8.324033 6.561480 -12.115848 -2.288888
6.822061 -0.875710 0.681906 8.235505 7.904294 -11.902219 -1.739555
6.830250 -0.746507 0.559880 8.261824 10.284738 -11.230811 -1.007111
6.837877 -0.669942 0.464174 8.168511 12.451552 -11.597034 0.061037
6.845508 -0.523991 0.514420 8.146977 13.824885 -11.993774 0.640889
6.853712 -0.284725 0.425892 8.010596 14.893033 -12.909330 0.885037
6.861352 -0.088528 0.382824 7.881393 14.770959 -13.214515 0.915555
6.868982 0.162700 0.473745 7.857466 13.855403 -12.421033 0.000000
6.877174 0.373254 0.571844 7.969921 11.322367 -10.986663 -1.892148
6.884802 0.437855 0.708225 7.943602 7.843257 -8.331553 -4.425184
6.892388 0.445033 0.854176 7.778509 4.516739 -5.676443 -6.500443
6.900546 0.392395 0.756078 7.862252 1.495407 -0.824000 -7.934812
6.908146 0.449818 0.722581 7.905319 0.457778 3.814814 -7.263405
6.915733 0.203375 0.799145 8.156548 0.854518 9.308145 -6.195257
6.923330 -0.064602 0.887674 8.405383 1.129185 12.024293 -4.882962
6.931664 -0.433070 0.966631 8.431703 1.251259 11.597034 -3.204443
6.939841 -0.629267 0.897244 8.539372 1.007111 8.362072 -1.739555
6.947438 -0.564666 0.753685 8.534587 0.366222 4.669332 -0.152593
6.955035 -0.323008 0.713010 8.546550 0.244148 1.648000 1.190222
6.962624 -0.296689 0.653194 8.407776 -0.122074 1.312296 2.502518
6.970803 -0.193805 0.629267 8.405383 -0.427259 2.655110 2.685629
6.978397 -0.150737 0.780004 8.405383 -1.342814 4.272591 2.471999
6.985984 -0.145952 0.696261 8.434095 -2.227851 7.171850 1.739555
6.994271 -0.162700 0.648408 8.529801 -2.380444 8.758812 0.366222
7.001867 -0.160308 0.569451 8.608759 -2.410962 9.430219 -1.159703
7.010017 -0.318223 0.571844 8.718821 -1.586962 9.704886 -1.800592
7.017615 -0.366076 0.660372 8.795386 -0.732444 9.125034 -1.770074
7.025211 -0.480923 0.655586 8.993976 0.152593 7.629627 -1.464888
7.033313 -0.528776 0.763256 9.044221 0.762963 4.608295 -0.488296
7.042307 -0.571844 0.689084 8.879128 1.770074 -0.915555 1.220740
7.050602 -0.323008 0.512027 8.704465 1.312296 -5.340739 3.387555
7.060207 -0.162700 0.380432 8.534587 1.281777 -6.317331 3.784295
7.069299 -0.150737 0.471352 8.357530 0.030519 -5.279702 2.807703
7.078442 -0.090921 0.703439 8.331211 -3.234962 -2.624592 2.044740
7.087443 -0.172271 0.780004 8.424525 -5.493332 0.701926 1.464888
7.096357 -0.267977 0.555095 8.560906 -5.890072 4.089480 1.342814
7.105303 -0.356505 0.368468 8.687716 -3.509629 5.951109 1.007111
7.113485 -0.399573 0.203375 8.716428 0.244148 4.943999 1.037629
7.121092 -0.512027 0.155522 8.766674 2.990814 2.441481 1.007111
7.128692 -0.507242 0.220124 8.816919 5.096591 -1.800592 -0.152593
7.136860 -0.495279 0.332579 8.670968 5.615406 -5.859554 -1.800592
7.144462 -0.363683 0.454604 8.599188 3.936888 -8.331553 -3.936888
7.152053 -0.258406 0.567058 8.307285 2.014222 -9.094516 -5.890072
7.160215 0.047853 0.708225 8.237898 -0.976592 -7.080294 -7.904294
7.167822 0.172271 0.626875 8.051271 -2.746666 -4.638813 -8.453627
7.175418 0.299081 0.624482 8.079983 -3.814814 -1.983703 -8.209479
7.183584 0.282333 0.449818 7.986670 -4.486221 1.220740 -6.958220
7.191171 0.301474 0.311045 8.070412 -3.540147 6.012146 -6.225776
7.199343 0.047853 0.284725 8.280966 -1.464888 10.437330 -6.408887
7.206969 -0.062209 0.442640 8.467592 0.610370 12.787255 -5.401776
7.214596 -0.366076 0.543132 8.728391 2.533036 13.122959 -4.028443
7.222800 -0.756078 0.612519 8.982012 3.265481 9.643849 -2.990814
7.230396 -0.961846 0.502457 8.986798 2.960295 3.112888 -2.807703
7.237985 -0.739329 0.413929 8.934159 2.899258 -2.471999 -2.471999
7.246080 -0.452211 0.404358 8.663790 3.265481 -6.317331 -2.899258
7.254239 -0.167486 0.356505 8.522623 4.516739 -6.408887 -1.953185
7.261846 -0.038282 0.263192 8.548943 5.981628 -4.089480 -1.312296
7.270180 0.162700 0.325401 8.522623 7.904294 -0.854518 -0.427259
7.277757 0.000000 0.346934 8.706858 8.636738 0.549333 -0.122074
7.286071 -0.074172 0.327793 8.833668 9.338664 0.274667 -0.366222
7.293780 -0.086135 0.330186 8.752318 9.399701 -1.342814 -0.824000
7.302101 -0.016749 0.267977 8.694894 9.491256 -2.929777 -1.007111
7.309881 0.004785 0.380432 8.778637 9.063997 -2.929777 -1.495407
7.318058 -0.050246 0.519205 8.802564 7.629627 -1.953185 -2.075259
7.325656 -0.153130 0.722581 8.888699 6.439405 -1.220740 -2.471999
7.333750 -0.198590 0.662764 8.903055 5.554369 -2.075259 -3.082369
7.341911 -0.174664 0.588592 9.056185 5.371258 -4.455702 -2.929777
7.349503 -0.045460 0.466567 9.137535 5.798517 -7.141331 -2.746666
7.357654 0.124418 0.327793 9.087289 7.263405 -9.643849 -2.746666
7.365253 0.253621 0.308652 9.053792 9.491256 -11.200293 -3.387555
7.372867 0.526383 0.263192 8.867165 11.352886 -12.329478 -4.181036
7.380492 0.806323 0.287118 8.888699 13.214515 -12.329478 -4.730369
7.388684 1.146080 0.299081 9.027473 14.526811 -11.871700 -6.378368
7.396304 1.670070 0.291903 9.417475 15.808588 -10.864589 -8.728294
7.404647 2.098355 0.234480 9.659133 17.914365 -9.155553 -13.092441
7.412982 2.696518 0.241658 10.180731 21.118809 -9.643849 -19.318216
7.420747 3.160692 0.189019 10.415210 23.987548 -12.451552 -24.719993
7.429096 4.062722 0.435463 10.769323 26.123844 -17.731254 -32.197027
7.436819 4.675240 0.703439 10.972698 25.574511 -22.217475 -37.141026
7.445040 5.407392 1.464302 10.896133 20.264290 -27.527696 -42.725913
7.453261 6.196966 2.038539 10.577911 12.359996 -29.602954 -46.021912
7.460908 7.103781 2.909464 10.707114 -0.488296 -30.762658 -46.967986
7.468602 8.149370 3.773211 10.307541 -13.275552 -29.602954 -42.970061
7.477918 9.460543 3.675112 9.697415 -27.466659 -24.994659 -28.656880
7.486210 10.010852 3.096091 9.147105 -34.241768 -19.562365 -13.550218
7.493880 10.262081 2.328050 8.441273 -36.622211 -12.085330 1.586962
7.502112 10.132878 1.548045 7.433967 -33.234657 -3.692740 16.968291
7.509754 9.793121 0.947490 6.919547 -27.954955 2.960295 32.471694
7.517414 9.604102 0.763256 6.838197 -22.644734 10.956145 47.822504
7.525797 8.891092 1.181970 6.756847 -20.905179 24.536882 56.367687
7.533439 8.032130 1.047981 7.048750 -20.813623 31.891842 55.116428
7.542670 7.216236 1.251357 7.091818 -23.590808 42.268136 56.306650
7.550846 6.653963 1.868661 7.142064 -29.877621 49.684133 55.146947
7.559903 6.347703 1.591113 7.539244 -38.056581 53.071688 53.498947
7.568131 5.366717 2.253877 8.216364 -48.188726 56.642354 47.883541
7.576353 5.077206 1.772954 8.797778 -53.621021 55.146947 43.519395
7.583988 5.486349 0.476138 8.797778 -51.087985 68.239387 39.216285
7.591632 4.938432 0.205768 8.761888 -41.962951 79.989013 38.483840
7.599856 5.261440 -2.476394 9.307413 -22.614216 92.837306 44.495987
7.607507 5.371502 -3.687075 9.864901 -2.471999 98.757897 52.766503
7.615888 3.273147 -7.299979 11.927366 32.532731 106.265450 55.543687
7.624328 0.930741 -6.706601 11.917795 72.206793 95.736564 46.784875
7.632584 -1.622217 -4.519718 12.716941 102.725303 63.661611 34.821619
7.640831 -3.550694 -1.899765 13.236146 121.402631 15.839106 20.722068
7.648489 -3.687075 -0.320615 12.893997 124.515519 -27.924436 2.685629
7.656137 -4.775732 2.131852 11.764666 120.365001 -71.382794 -16.083254
7.663787 -7.075069 2.820936 12.238411 98.696860 -146.488845 -50.782800
7.672021 -4.292416 4.725486 10.410425 73.122349 -203.161718 -68.880276
7.679680 -2.930998 6.699423 8.225935 47.914060 -223.090304 -66.469314
7.687902 -1.768169 7.106174 5.859603 25.940733 -211.066012 -65.767388
7.695533 -2.112711 6.163469 4.179962 9.643849 -169.164098 -64.607685
7.703163 -2.380688 5.361931 3.529160 -0.152593 -120.731223 -61.525315
7.710794 -3.452596 1.780132 3.653578 -9.338664 -61.250649 -64.088870
7.719140 -5.110703 0.830250 3.744499 -13.550218 -8.545183 -63.875240
7.726781 -5.885922 -0.600555 4.502969 -21.912290 33.112583 -62.685018
7.735172 -6.737706 -0.705832 5.481564 -35.187841 61.464278 -65.889462
7.742989 -7.675625 -1.299210 6.352489 -50.599689 79.989013 -63.600574
7.751359 -9.302628 -2.139030 6.773595 -60.090945 86.001160 -55.757317
7.759088 -11.221534 -1.382952 7.070284 -58.168279 79.927976 -50.721763
7.767299 -13.135655 -0.791968 7.462679 -53.987243 62.807093 -42.847987
7.774966 -14.264986 0.284725 8.517838 -47.395245 48.036134 -31.647694
7.783188 -14.147746 1.801666 8.783422 -33.570360 28.321177 -15.747551
7.790802 -12.604486 1.040803 8.704465 -16.602069 3.082369 0.122074
7.799004 -10.439137 -0.471352 8.331211 2.349925 -15.930662 13.245033
7.806651 -8.462807 -1.339885 7.804828 24.140141 -26.764733 25.482955
7.814283 -6.881265 -2.007434 7.338261 37.659841 -26.825770 33.722953
7.822623 -4.890579 -2.385473 7.113352 53.224281 -17.670217 36.469619
7.830262 -3.541124 -2.514676 7.256911 60.670797 -8.972442 37.232582
7.838575 -2.450075 -0.514420 6.909977 55.055391 0.030519 37.629322
7.846943 -3.093698 0.454604 6.438624 39.033174 5.005036 35.645619
7.855151 -3.703824 1.119761 6.007947 19.470809 4.638813 31.617176
7.863356 -3.557872 1.593506 5.531809 -4.089480 3.051851 22.431104
7.871884 -2.995599 1.691604 5.192053 -22.583697 2.777184 15.106662
7.880231 -2.220380 1.655715 5.280581 -33.997620 8.178961 9.186071
7.887961 -1.945225 1.131724 5.517454 -36.286508 19.013031 6.073183
7.896159 -2.196454 0.447426 6.072549 -31.220435 30.396435 3.570666
7.903784 -2.686947 0.184234 6.953044 -20.783105 35.889767 0.213630
7.911978 -3.328178 0.000000 7.682803 -8.117924 33.936583 -3.570666
7.919576 -4.043580 0.236872 8.412561 4.089480 23.987548 -6.347850
7.927700 -4.462294 0.351720 9.053792 16.174810 8.789331 -8.606220
7.935895 -4.629780 0.476138 9.405512 27.039399 -6.530961 -10.589923
7.944313 -4.498184 0.803931 9.556249 33.906064 -20.050661 -12.573626
7.952832 -4.371374 1.086264 9.544285 33.936583 -26.093326 -13.397626
7.961053 -4.397693 1.208289 9.486862 30.274361 -24.658956 -13.519700
7.968694 -4.395300 1.162828 9.465328 25.513474 -19.074068 -13.061922
7.976913 -4.687204 1.033625 9.278701 20.538957 -13.061922 -12.543107
7.984566 -5.074813 0.842213 9.041829 16.846217 -7.568590 -10.620441
7.992187 -5.594018 0.555095 8.869558 15.442366 -3.875851 -8.056887
8.000387 -6.409912 0.516813 8.580047 14.923551 -0.976592 -6.042665
8.008008 -7.182739 0.490493 8.520231 15.747551 0.915555 -4.547258
8.015631 -7.900534 0.634053 8.175689 19.043550 2.563555 -1.434370
8.024104 -8.314463 0.880496 8.182867 23.529771 2.960295 4.455702
8.032094 -8.484341 1.153258 8.335997 27.008881 2.716147 11.322367
8.040357 -8.714035 1.129331 8.374279 28.382214 1.281777 19.470809
8.049598 -9.372015 1.220252 8.319248 28.595843 -3.479110 26.734214
8.058713 -9.958214 1.516941 8.290536 24.323252 -14.465773 34.913175
8.067278 -10.266866 1.993078 8.075198 10.803552 -39.521470 43.153172
8.075804 -10.376928 2.134245 7.197095 -3.997925 -61.708426 44.831690
8.084177 -10.338646 2.103140 6.048622 -18.829920 -77.089755 40.284433
8.092674 -9.754839 2.229951 5.560521 -30.884732 -81.148717 33.265175
8.100453 -8.340782 2.000256 5.369109 -42.176580 -74.312571 25.727103
8.108930 -6.754454 1.227430 4.818799 -47.791986 -57.069613 18.524735
8.117267 -5.364324 0.311045 4.601068 -43.488876 -25.910215 7.782220
8.124909 -4.943217 -0.028712 4.814014 -34.333323 0.976592 -1.403851
8.133059 -5.005426 0.275155 5.086776 -21.607105 32.074953 -8.331553
8.141424 -5.292544 -0.011963 5.716044 -15.259255 48.463393 -13.183996
8.149253 -5.464815 0.473745 6.199359 -16.510514 53.621021 -12.482070
8.157610 -5.333219 0.062209 6.051015 -23.163549 50.019837 -11.932737
8.165830 -4.328306 -0.327793 5.512668 -31.891842 43.336283 -12.878811
8.173486 -3.060201 -1.134117 5.309293 -39.887692 42.725913 -17.914365
8.181849 -2.356761 -1.693997 5.177697 -46.449171 51.667837 -22.614216
8.189492 -1.835163 -1.713138 5.620338 -47.914060 64.516129 -27.680288
8.198055 -2.150993 -1.282461 5.940953 -37.385174 79.592273 -35.157323
8.206422 -2.875967 -0.449818 6.981756 -21.118809 78.249458 -37.141026
8.214572 -2.385473 0.543132 8.292929 -5.615406 62.471389 -35.035249
8.222770 -0.282333 0.380432 9.840974 4.638813 40.437025 -28.473769
8.230404 1.631788 -0.346934 10.786071 12.878811 20.752586 -20.874660
8.239068 3.541124 0.138774 11.063619 17.426069 2.502518 -10.345775
8.247459 4.474258 1.579150 11.149754 13.519700 -8.880886 8.209479
8.255196 3.888058 2.883145 10.946379 7.019257 -16.174810 40.986358
8.263406 4.569964 4.120145 11.298099 1.800592 -12.756737 79.378643
8.271043 4.897757 3.976586 12.039821 -0.579852 -12.207404 112.369152
8.279266 6.857338 2.986029 12.786328 1.586962 -5.737480 129.703665
8.286906 8.297714 0.344542 13.264858 6.317331 4.333628 129.184851
8.295246 10.015638 -3.019526 13.714676 16.083254 3.967406 120.548112
8.302902 12.367614 -4.577142 13.865413 27.497177 6.408887 103.091525
8.311393 14.226704 -2.488357 13.798419 30.762658 -5.493332 87.496567
8.319765 16.203034 -0.105277 14.666952 30.518509 -30.060732 50.965911
8.328004 17.822858 0.507242 15.478060 31.922361 -42.664876 -4.882962
8.335664 18.270284 1.454732 16.224567 32.868435 -54.689169 -59.205908
8.343334 13.803204 3.129588 13.197864 23.957030 -89.419233 -118.717002
8.351573 11.353130 4.852297 9.869686 -8.514664 -136.143071 -161.717582
8.359217 9.522752 4.359410 6.180218 -53.315836 -171.971801 -177.129429
8.367434 9.159069 3.706217 3.600940 -93.417158 -179.906613 -170.964690
8.375095 10.195087 3.567443 2.775475 -121.646779 -151.738029 -152.226325
8.383477 11.231104 2.811365 2.866396 -129.581591 -95.614490 -125.736259
8.391865 10.848280 1.837556 4.270882 -119.846187 -12.573626 -84.933012
8.400625 8.400598 0.354112 5.474386 -104.068117 61.159093 -45.442061
8.409104 4.586712 -1.205896 6.577398 -77.608570 127.842036 -0.122074
8.417445 1.954796 -2.524247 7.553600 -50.477615 162.388989 33.448286
8.425148 -0.373254 -1.835163 9.151891 -19.989624 172.948393 56.825465
8.433368 -2.550566 -1.390130 10.824354 13.611255 163.304544 75.258644
8.441022 -4.483828 -0.576629 12.130741 45.167394 131.046480 88.320566
8.449385 -5.632301 -0.098099 13.520872 68.788720 81.087680 91.677602
8.457050 -5.672976 0.672335 13.461055 81.698050 18.433180 84.566790
8.465518 -5.438496 0.631660 11.913010 86.428419 -43.641469 69.734794
8.474075 -3.689468 0.485708 10.305148 87.557604 -108.462783 50.416578
8.482440 -1.354241 -0.038282 8.845631 82.827235 -131.931516 32.868435
8.491009 1.143687 0.325401 7.730656 74.465163 -134.189886 15.259255
8.499534 2.131852 0.818287 6.929118 60.213019 -110.446486 0.640889
8.507865 1.923692 1.201111 6.658748 47.639393 -80.324717 -6.805628
8.515486 1.643751 1.464302 6.725742 33.875546 -51.087985 -10.589923
8.523127 1.490622 1.569579 6.919547 22.614216 -28.168584 -12.390515
8.531482 0.928349 1.708353 7.321512 7.690664 -9.369182 -14.984588
8.539884 0.614911 1.911728 7.467464 -6.286813 -0.640889 -18.799402
8.548368 0.614911 2.136637 7.687588 -21.423994 3.204443 -21.546068
8.556570 0.703439 2.000256 7.776116 -36.500137 6.653035 -22.064882
8.564201 0.820679 1.387738 7.802435 -42.909024 9.735405 -18.707846
8.572406 1.217859 0.698654 8.230720 -45.258950 14.648885 -11.963256
8.580061 1.181970 0.031104 8.615937 -42.603839 19.135105 -5.706961
8.587704 1.045589 -0.239265 9.010724 -38.087100 21.332438 -1.312296
8.596063 0.708225 -0.236872 9.065755 -33.143101 20.722068 1.800592
8.604339 0.485708 -0.019141 9.147105 -27.008881 19.104587 3.204443
8.612897 0.081350 0.246443 9.008332 -20.020142 14.984588 2.197333
8.621126 -0.153130 0.155522 8.685324 -13.336589 8.819849 0.671407
8.628761 -0.244050 0.105277 8.515445 -7.477035 0.732444 -1.068148
8.636355 0.033497 0.100491 8.288144 -3.387555 -4.272591 -2.655110
8.644669 0.342149 0.361290 7.989062 -1.312296 -5.279702 -4.181036
8.652255 0.672335 0.428285 8.144584 -0.671407 -2.655110 -4.547258
8.659851 0.440248 0.122025 8.245076 2.471999 0.854518 -2.258370
8.668217 0.174664 -0.007178 8.484341 7.019257 3.570666 0.000000
8.675829 -0.239265 0.110062 8.666182 11.322367 3.448592 0.518815
8.684263 -0.445033 0.624482 8.895877 13.550218 -1.373333 1.403851
8.692212 -0.464174 0.949883 8.936552 12.359996 -6.591998 1.129185
8.700575 -0.246443 1.103012 8.563298 7.995849 -13.031404 -1.098666
8.708304 0.047853 1.083871 8.312070 2.746666 -17.395550 -4.516739
8.716505 0.509635 0.870925 8.187652 -2.563555 -18.097476 -6.927702
8.724129 0.818287 0.758470 8.056056 -6.225776 -14.893033 -8.117924
8.732443 1.033625 0.691476 8.142192 -8.728294 -7.263405 -7.782220
8.740032 1.110190 0.531169 8.211579 -9.491256 -0.640889 -7.232887
8.747630 1.031233 0.306259 8.589618 -8.545183 4.943999 -4.577776
8.755928 0.796753 -0.160308 8.982012 -6.500443 7.660146 -0.152593
8.763531 0.736937 0.095706 8.938945 -3.784295 6.744591 2.868740
8.771654 0.610126 0.028712 8.919803 -0.213630 3.418073 4.669332
8.780112 0.610126 0.165093 8.982012 3.295999 1.434370 5.706961
8.788432 0.488101 0.196197 9.017902 5.066073 2.349925 6.408887
8.796162 0.456996 0.334971 8.845631 5.005036 3.814814 6.225776
8.804372 0.112455 0.514420 8.958086 4.242073 5.249184 6.347850
8.811976 -0.157915 0.514420 8.962871 2.990814 4.760887 6.042665
8.820272 -0.394787 0.588592 8.970049 2.471999 1.159703 6.195257
8.827866 -0.533561 0.423499 8.862380 4.303110 -2.380444 5.920591
8.836027 -0.488101 0.356505 8.766674 7.232887 -6.744591 5.279702
8.843622 -0.189019 0.313437 8.831275 9.979553 -11.597034 5.096591
8.851249 0.217731 0.028712 8.642256 12.207404 -15.839106 5.706961
8.859597 0.528776 0.016749 8.211579 13.702811 -18.066958 5.340739
8.868064 0.677120 0.284725 7.977099 11.505478 -15.655995 3.357036
8.876535 0.897244 0.504849 7.886178 6.897183 -10.559404 1.739555
8.884142 0.930741 0.796753 7.812006 1.525925 -3.997925 0.000000
8.892447 0.689084 0.906815 7.957958 -3.723258 1.892148 -0.854518
8.900616 0.543132 0.911600 8.082376 -7.507553 4.852443 -1.586962
8.908221 0.516813 0.602948 8.146977 -9.338664 4.638813 -2.685629
8.915812 0.418714 0.399573 8.161333 -8.667257 3.051851 -3.082369
8.923982 0.332579 0.227302 8.079983 -5.615406 2.655110 -2.441481
8.931585 0.296689 0.296689 8.017774 -3.418073 2.868740 -2.380444
8.939179 0.337364 0.284725 8.029737 -0.915555 4.791406 -2.319407
8.947481 0.244050 0.224909 8.206793 1.190222 7.782220 -1.373333
8.955071 0.344542 0.179449 8.391028 2.563555 10.589923 0.427259
8.962694 0.356505 0.275155 8.517838 3.357036 12.329478 2.166814
8.970877 0.172271 0.315830 8.599188 4.791406 12.115848 3.204443
8.978496 0.066994 0.253621 8.764281 5.737480 10.498367 2.410962
8.986122 -0.153130 0.382824 8.690109 4.974517 7.812738 0.335704
8.994289 -0.133988 0.662764 8.721213 2.471999 5.310221 -2.685629
9.001879 -0.047853 0.748900 8.678146 0.366222 3.967406 -4.638813
9.009472 0.136381 0.612519 8.508267 -0.885037 4.608295 -5.706961
9.017070 0.236872 0.363683 8.694894 0.183111 6.927702 -5.310221
9.025231 0.232087 0.129203 8.737962 2.716147 9.613330 -4.486221
9.033255 0.208161 -0.172271 8.991583 5.951109 10.956145 -3.875851
9.041837 0.002393 -0.016749 9.058577 8.545183 8.575701 -3.936888
9.050192 0.011963 0.165093 9.039436 8.606220 2.380444 -4.760887
9.057910 0.129203 0.212946 9.068148 6.958220 -4.943999 -6.195257
9.066080 0.215339 0.416321 8.869558 3.631703 -10.956145 -6.530961
9.074329 0.411536 0.660372 8.687716 -0.152593 -13.458663 -5.401776
9.082038 0.624482 0.701047 8.467592 -2.777184 -10.834071 -3.418073
9.089671 0.724973 0.760863 8.242683 -4.882962 -5.890072 -1.434370
9.097299 0.583807 0.727366 8.063234 -5.676443 0.152593 1.190222
9.105511 0.435463 0.624482 8.039308 -6.012146 4.943999 3.051851
9.113112 0.330186 0.523991 8.259432 -6.469924 8.270516 3.784295
9.121227 0.244050 0.634053 8.321641 -7.873775 10.406812 2.838221
9.130321 0.217731 0.665157 8.429310 -9.216590 8.850368 1.251259
9.139077 0.332579 0.528776 8.515445 -9.186071 5.767998 0.152593
9.147431 0.411536 0.445033 8.314463 -8.148442 2.868740 -0.762963
9.155747 0.483316 0.275155 8.163726 -5.645924 0.946074 -0.549333
9.163924 0.605341 0.246443 8.173296 -2.960295 2.044740 0.946074
9.171524 0.715403 0.270370 8.094339 -0.213630 3.509629 2.563555
9.179129 0.717795 0.184234 8.192438 3.631703 6.012146 3.570666
9.187293 0.713010 0.138774 8.230720 6.561480 8.362072 3.570666
9.194884 0.528776 0.265584 8.429310 8.026368 8.453627 2.594073
9.202489 0.409143 0.416321 8.419739 7.965331 7.782220 2.471999
9.210645 0.138774 0.729759 8.587225 7.019257 6.286813 4.303110
9.218232 0.236872 0.763256 8.618329 6.042665 4.394665 6.286813
9.226384 0.342149 0.643623 8.687716 5.066073 1.892148 7.049776
9.233975 0.464174 0.382824 8.702072 5.218665 -1.434370 7.446516
9.241568 0.763256 0.244050 8.582440 5.890072 -4.577776 8.056887
9.249730 1.107797 0.224909 8.501090 5.829035 -7.232887 7.477035
9.257320 1.552831 0.363683 8.508267 4.852443 -8.239998 6.561480
9.265483 2.124674 0.435463 8.321641 2.807703 -6.408887 4.669332
9.273071 2.689340 0.543132 8.235505 -0.549333 -0.610370 1.586962
9.281185 3.445418 0.454604 8.292929 -5.706961 7.904294 -2.807703
9.289356 4.012476 0.476138 8.769066 -11.597034 18.189032 -7.721183
9.297001 4.491006 0.325401 8.910233 -18.250069 27.161473 -14.007996
9.305514 4.766161 0.660372 9.302628 -28.321177 30.945769 -22.675253
9.313875 5.381072 0.784790 9.738090 -39.735099 33.356731 -33.051546
9.322099 6.098868 0.662764 9.661525 -47.029023 36.500137 -41.016877
9.329742 6.842982 0.715403 10.207050 -49.745170 43.305765 -43.977172
9.337980 7.247340 0.523991 10.900919 -47.578356 52.369762 -40.589618
9.345639 7.103781 0.528776 11.582824 -41.749321 58.412427 -31.769768
9.353870 6.826234 0.602948 12.006323 -32.197027 59.053316 -18.951994
9.361543 6.072549 0.423499 12.377184 -21.790216 53.651540 -2.166814
9.369187 5.323649 0.337364 12.133134 -13.489181 40.711692 13.153478
9.377762 4.967144 0.100491 11.850801 -3.784295 19.257179 30.365917
9.386125 4.732664 0.031104 11.456014 5.401776 -2.410962 43.946654
9.393869 5.230335 0.686691 10.664046 12.909330 -23.468734 54.597613
9.402112 5.854817 1.428413 10.137663 14.862514 -37.446211 64.943388
9.410339 6.754454 1.504978 9.410297 11.749626 -44.007691 73.152867
9.417995 7.694766 1.926084 9.316984 7.293924 -41.291543 78.127384
9.425625 7.584704 2.119889 9.197351 -0.671407 -30.335398 79.134495
9.433823 7.022431 1.911728 8.599188 -7.843257 -20.844142 79.012421
9.441458 6.517582 1.827985 8.017774 -13.183996 -13.245033 77.639088
9.449104 6.156291 1.605469 7.627772 -15.991699 -9.643849 75.228126
9.457296 6.170647 0.928349 8.089554 -18.219550 -1.556444 72.908719
9.464942 6.390771 0.193805 8.266610 -13.214515 12.909330 75.167089
9.473261 6.244819 -0.811109 8.575262 2.441481 35.798212 72.328867
9.481777 6.560649 -2.490750 10.137663 21.423994 62.135685 65.126499
9.489996 6.012732 -3.038667 10.958342 42.115543 84.719382 59.633168
9.498219 3.988549 -2.021790 12.164238 63.295389 89.114048 49.562059
9.505879 2.129460 -0.490493 13.334245 80.141606 73.763237 39.582507
9.513552 1.507370 1.648537 14.351122 86.275826 44.892727 30.182806
9.521776 -1.691604 2.361547 13.831916 76.601459 -4.364147 18.585772
9.529418 -2.273019 2.521854 12.563811 60.213019 -60.060427 8.301035
9.537928 -2.797009 2.253877 10.408032 42.420728 -109.164708 0.335704
9.546411 -2.904678 1.997864 8.008203 22.461623 -148.014771 -4.333628
9.554754 -2.213202 1.222645 6.055800 2.258370 -164.159062 -10.650960
9.563298 -2.002649 1.167614 4.680026 -20.844142 -157.567064 -14.374218
9.571799 -0.732151 -0.157915 3.414313 -37.079989 -133.060701 -15.717032
9.579450 -1.533689 -1.141295 5.201624 -54.109317 -103.061007 -6.805628
9.587791 -0.607733 -3.914377 6.326170 -58.412427 -59.389019 -3.875851
9.596139 -1.741850 -3.713395 6.211322 -46.784875 3.357036 -11.871700
9.604516 -4.775732 -2.763512 6.256783 -32.471694 44.923246 -25.025178
9.612892 -8.321641 -1.674856 6.467336 -13.672292 62.013611 -30.610065
9.620518 -9.974963 -0.411536 5.474386 11.108737 68.758202 -35.157323
9.628737 -13.496945 1.237001 6.058193 28.778954 47.151097 -45.014801
9.636389 -15.159838 2.387866 6.223286 34.546953 9.338664 -52.217170
9.644601 -15.195727 2.529032 6.237642 27.619251 -28.107547 -54.841762
9.652244 -14.087930 2.440504 6.113224 12.482070 -50.721763 -55.696280
9.660712 -11.939329 1.950011 5.790216 -4.760887 -54.383984 -48.951689
9.668776 -9.039436 0.844606 5.797394 -16.144292 -36.286508 -31.006806
9.677886 -7.548814 -0.339756 6.158684 -22.064882 -0.183111 1.037629
9.685509 -6.086905 -0.677120 7.405255 -24.719993 44.740135 26.062807
9.693757 -5.871566 -0.990558 8.407776 -25.971252 91.097751 42.451247
9.701408 -6.180218 -0.492886 9.025080 -26.184881 123.447371 53.346355
9.709061 -7.142064 -0.473745 9.532322 -20.691549 134.372997 62.685018
9.717639 -7.907712 -0.299081 9.661525 -10.528886 119.998779 68.849757
9.725982 -7.910105 0.301474 10.068276 -1.495407 87.588122 73.519089
9.734141 -8.020167 0.933134 9.383978 0.701926 55.207984 68.758202
9.742336 -8.245076 1.215467 8.833668 -1.251259 25.971252 54.689169
9.749970 -7.376543 1.141295 8.345567 -5.340739 1.373333 35.401471
9.758173 -6.756847 1.246571 7.347832 -12.756737 -14.221625 13.885922
9.765818 -5.866781 1.361419 6.491263 -19.653920 -26.215400 -3.936888
9.773449 -4.747020 1.059944 5.809357 -27.588733 -36.011841 -19.562365
9.782013 -3.768426 -0.263192 5.419355 -26.917325 -38.483840 -29.816584
9.790401 -3.313822 -1.220252 5.254262 -17.029328 -34.669027 -34.546953
9.798141 -3.356890 -1.806452 5.426533 -3.509629 -26.947844 -36.530656
9.806340 -3.935911 -1.749028 5.826106 11.780145 -21.210364 -35.615101
9.814560 -4.804443 -1.186755 6.096475 25.025178 -19.867550 -31.800287
9.822211 -5.754326 -0.583807 6.536723 35.065767 -22.034364 -27.100436
9.830430 -7.046358 -0.323008 6.969793 41.352580 -24.750511 -23.926511
9.838080 -7.876608 0.131596 7.316727 43.244728 -27.771844 -23.285623
9.846543 -7.979492 0.590985 7.974706 44.343394 -29.053621 -23.834956
9.854353 -8.639863 0.512027 8.096731 50.050356 -29.786065 -24.842067
9.862704 -9.249989 0.875710 8.094339 60.335093 -33.265175 -27.314066
9.870419 -9.498825 1.581542 8.065627 71.169164 -40.437025 -32.563250
9.878709 -9.168639 2.241914 8.345567 77.242347 -48.219245 -36.805322
9.886416 -8.355138 2.268233 8.529801 74.831385 -53.682058 -38.483840
9.894706 -7.611023 1.976330 8.113480 63.905759 -56.489761 -42.420728
9.902367 -7.108567 1.354241 7.276052 47.914060 -56.978057 -49.012726
9.910016 -6.161077 0.775219 6.242427 32.929472 -54.963836 -56.428724
9.918243 -5.275796 0.504849 5.342790 20.996735 -46.571245 -60.365612
9.926662 -4.723093 0.014356 4.869045 11.780145 -33.326212 -60.975982
9.935014 -4.065114 -0.624482 4.895364 5.890072 -16.663106 -60.548723
9.943234 -3.433454 -0.600555 5.483956 5.493332 -0.946074 -58.229316
9.950867 -3.019526 -0.198590 6.163469 8.331553 12.451552 -53.926206
9.959237 -3.263576 0.504849 7.091818 9.369182 23.926511 -50.782800
9.966873 -3.861739 1.110190 7.544029 5.127110 31.556139 -51.362651
9.975014 -3.679897 1.576757 7.725871 -3.173925 33.173620 -53.773614
9.983302 -3.464559 1.777740 7.802435 -12.512589 27.008881 -53.376873
9.991081 -3.076949 1.227430 7.584704 -20.538957 21.362957 -49.287393
9.999417 -2.567315 0.945097 7.419611 -27.039399 14.343699 -41.291543
10.007128 -1.615040 0.588592 7.759368 -30.304880 7.263405 -28.870510
10.015971 -0.689084 0.244050 7.979492 -29.908139 -2.349925 -8.545183
10.024707 0.555095 -0.090921 8.233113 -23.712882 -9.277627 13.611255
10.032981 2.497928 -1.672463 8.556120 -14.130070 -8.941923 27.130955
10.041232 2.978851 -0.985772 8.309677 -0.610370 -1.464888 30.640584
10.048869 3.275539 -0.313437 8.424525 12.909330 9.430219 31.037324
10.057287 3.459774 0.660372 8.979620 22.034364 17.670217 34.821619
10.065740 2.995599 1.753813 9.613672 19.043550 18.921476 48.707541
10.074119 3.809101 1.995471 10.041957 11.322367 20.661031 57.863094
10.082355 3.895236 2.261055 9.840974 3.173925 20.996735 62.410352
10.090856 3.541124 3.048238 9.831404 -5.523850 14.770959 65.126499
10.099838 3.911985 3.285110 10.185516 -12.726218 5.584887 70.467238
10.108793 5.132237 2.615168 10.924845 -15.503403 4.486221 78.463088
10.117565 6.412305 1.323136 11.549327 -11.993774 12.237922 84.688864
10.126542 7.587097 0.291903 11.427302 -2.563555 19.043550 85.299234
10.135540 8.417347 -0.531169 11.673745 6.561480 20.386364 81.118198
10.144079 9.104038 -0.576629 11.568468 11.505478 16.327403 71.321757
10.152336 9.398334 -0.334971 11.712027 15.381329 7.995849 55.940428
10.160591 9.814655 -0.153130 11.915403 17.456587 -5.157628 31.525620
10.168244 10.269259 -0.323008 12.099637 18.158513 -18.677328 8.148442
10.176584 11.137791 -0.002393 11.915403 19.196142 -39.490951 -24.628437
10.184968 10.843495 0.306259 11.305277 19.196142 -56.031983 -57.252724
10.193236 9.953429 1.382952 10.101773 16.632588 -69.795831 -82.216865
10.200912 8.654219 2.057680 9.142320 9.308145 -78.920866 -97.567675
10.209076 7.445930 2.603204 8.223542 -2.502518 -84.933012 -103.732414
10.218078 6.455373 3.069771 7.316727 -20.508438 -89.999084 -102.633747
10.226450 5.842854 2.562529 6.594147 -35.431990 -85.879086 -96.865749
10.234668 5.613160 1.830378 6.208930 -43.336283 -77.333903 -85.848567
10.242321 5.445674 0.966631 6.187396 -44.251839 -63.783685 -67.781610
10.250660 5.180090 0.210553 6.376415 -37.690359 -43.885617 -45.411542
10.259213 5.156163 0.641231 6.993719 -27.405622 -19.379254 -25.543992
10.267449 4.672848 0.894852 7.768938 -14.526811 7.049776 -10.803552
10.275802 3.629652 1.325529 8.613544 -5.676443 27.558214 -2.105777
10.283429 2.258663 1.622217 9.340910 -1.342814 41.199988 4.028443
10.291886 1.146080 1.782525 9.683059 1.342814 43.580432 8.514664
10.300363 0.301474 1.782525 9.874471 6.073183 36.042360 12.451552
10.308006 -0.177056 1.655715 10.082632 9.887997 24.506363 16.083254
10.316379 -0.361290 1.184362 9.984533 15.472884 7.110813 20.905179
10.324556 -0.239265 0.748900 9.690237 21.118809 -5.218665 25.452437
10.332220 0.074172 0.693869 9.472506 25.818659 -13.061922 27.466659
10.339891 0.504849 0.497671 9.443794 28.687399 -16.052736 26.673177
10.348316 0.966631 0.540739 9.242811 31.067843 -15.137181 23.590808
10.356293 1.098227 0.854176 8.986798 31.159398 -10.895108 20.020142
10.364673 0.990558 0.952275 8.929374 29.663991 -3.662221 16.510514
10.372391 0.799145 0.909207 8.924589 27.558214 3.082369 13.580737
10.380748 0.571844 0.856569 9.058577 24.658956 7.995849 10.681478
10.388980 0.229695 1.009699 9.111216 21.698660 7.965331 7.812738
10.396608 -0.095706 1.083871 9.163854 17.761773 4.486221 4.730369
10.404230 -0.076565 1.074300 8.876736 14.404736 -0.305185 1.403851
10.412437 0.069387 1.009699 8.596796 11.505478 -4.913480 -1.709037
10.420073 0.086135 1.110190 8.314463 5.645924 -9.765923 -3.662221
10.427679 0.205768 0.992950 8.036915 -0.091556 -13.428144 -4.882962
10.435872 0.442640 1.014484 7.828755 -6.439405 -15.289773 -4.791406
10.443501 0.629267 0.995343 7.855074 -11.139256 -13.550218 -4.181036
10.451993 0.698654 1.057552 7.819184 -13.489181 -9.796442 -3.357036
10.460320 0.464174 0.916385 7.984277 -13.336589 -5.554369 -1.739555
10.468092 0.433070 0.758470 8.266610 -10.711997 -4.303110 -0.183111
10.476472 0.447426 0.473745 8.233113 -6.073183 -5.737480 1.373333
10.484113 0.598163 0.370861 8.032130 -1.068148 -8.362072 2.471999
10.491740 0.717795 0.449818 8.070412 2.502518 -10.193182 2.716147
10.499984 0.909207 0.768041 7.826362 5.035554 -11.932737 1.922666
10.507618 1.229823 0.913993 7.826362 4.974517 -11.383404 0.701926
10.515830 1.478658 0.947490 7.651698 3.662221 -8.758812 -0.854518
10.523438 1.409272 1.131724 7.539244 2.227851 -6.195257 -1.648000
10.531035 1.452339 1.153258 7.563170 -0.366222 -4.272591 -2.014222
10.538643 1.485836 1.062337 7.508139 -1.983703 -1.098666 -0.976592
10.546827 1.366204 1.050374 7.646913 -2.899258 4.516739 0.488296
10.554438 1.093442 0.976202 7.886178 -2.929777 10.437330 0.579852
10.562080 0.890066 0.923563 8.209186 -1.953185 14.801477 0.549333
10.570419 0.646016 0.935527 8.479556 -0.305185 15.961180 0.061037
10.578796 0.583807 0.799145 8.771459 1.617481 12.604144 -0.335704
10.587207 0.713010 0.729759 8.778637 3.845332 6.012146 -1.159703
10.595402 0.870925 0.722581 8.596796 5.066073 0.061037 -1.556444
10.603031 0.971416 0.768041 8.467592 4.516739 -3.997925 -1.678518
10.611210 1.059944 0.911600 8.486734 2.563555 -5.676443 -2.044740
10.618816 1.210681 1.071908 8.302499 -0.366222 -3.784295 -2.166814
10.627004 1.248964 1.198718 8.192438 -4.364147 0.732444 -2.838221
10.634608 1.112583 1.265712 8.345567 -7.995849 4.119999 -3.021332
10.642202 0.916385 1.143687 8.218757 -10.010071 7.751701 -3.021332
10.650407 0.691476 0.870925 8.273788 -8.392590 11.810663 -1.159703
10.658039 0.717795 0.684298 8.632685 -5.767998 14.801477 0.274667
10.665694 0.686691 0.397180 8.795386 -2.227851 15.930662 1.770074
10.673977 0.641231 0.535954 9.037043 2.441481 15.198218 2.655110
10.681633 0.734544 0.607733 9.139927 5.432295 12.970367 3.479110
10.689266 0.746507 0.784790 9.127964 6.591998 9.521775 4.211554
10.697459 0.734544 0.940312 8.915018 6.500443 7.080294 4.638813
10.705072 0.643623 1.045589 8.721213 4.669332 6.195257 4.943999
10.712692 0.571844 1.009699 8.505875 1.709037 6.500443 5.066073
10.720900 0.557488 1.138902 8.314463 -1.617481 7.080294 4.943999
10.728523 0.538347 1.091049 8.448451 -3.662221 6.775109 4.150517
10.736134 0.358898 1.083871 8.649434 -5.218665 5.157628 2.319407
10.744323 0.416321 0.947490 8.623115 -5.981628 1.983703 0.762963
10.751950 0.523991 0.780004 8.637471 -5.706961 -0.122074 -1.068148
10.759584 0.650801 0.701047 8.539372 -4.821924 -0.762963 -2.288888
10.767726 0.870925 0.777612 8.350352 -4.028443 -0.335704 -3.692740
10.776219 0.983380 0.801538 8.326426 -5.340739 1.373333 -3.570666
10.784551 1.055159 0.863747 8.280966 -7.019257 4.089480 -2.960295
10.792745 0.758470 0.772826 8.405383 -8.117924 6.317331 -1.739555
10.800353 0.480923 0.677120 8.556120 -8.697775 7.263405 -0.732444
10.808489 0.272762 0.669942 8.572869 -9.247108 5.645924 -0.335704
10.816688 0.363683 0.523991 8.709250 -8.850368 1.922666 -0.793481
10.824306 0.289511 0.540739 8.704465 -7.873775 -0.885037 -1.007111
10.832662 0.361290 0.607733 8.649434 -6.134220 -3.326518 -1.129185
10.840375 0.430677 0.610126 8.429310 -4.882962 -3.845332 -0.976592
10.848472 0.607733 0.655586 8.283358 -3.601184 -3.051851 -0.824000
10.856268 0.758470 0.739329 8.178082 -2.685629 -1.251259 0.244148
10.864620 0.698654 0.667550 8.273788 -2.197333 1.525925 2.075259
10.872339 0.653194 0.722581 8.216364 -1.434370 3.753777 3.814814
10.880662 0.564666 0.768041 8.367101 0.061037 5.340739 6.103702
10.888980 0.485708 0.837428 8.539372 1.312296 5.157628 8.606220
10.896596 0.459389 0.760863 8.517838 2.746666 3.631703 10.895108
10.905146 0.507242 0.614911 8.558513 3.601184 1.922666 12.573626
10.913500 0.677120 0.495279 8.525016 3.845332 1.037629 13.092441
10.921197 0.768041 0.507242 8.376672 3.570666 -0.183111 13.855403
10.929397 1.024055 0.497671 8.331211 1.678518 -0.488296 12.939848
10.937033 1.359026 0.543132 8.101517 -0.457778 0.122074 11.597034
10.945370 1.684426 0.665157 7.993847 -4.150517 1.495407 9.460738
10.952973 1.950011 0.763256 7.969921 -8.423109 4.577776 7.965331
10.961166 2.261055 0.858962 7.912497 -12.695700 9.033479 6.012146
10.968807 2.325657 0.794360 8.161333 -15.320292 13.977477 4.150517
10.976454 2.330442 0.526383 8.240291 -16.510514 17.853328 1.312296
10.984680 2.213202 0.418714 8.501090 -15.991699 18.311106 -1.464888
10.992327 2.356761 0.241658 8.792993 -14.770959 16.632588 -2.838221
10.999974 2.670199 0.002393 8.993976 -11.444441 14.007996 -3.265481
11.009074 3.139158 -0.251228 9.025080 -5.554369 10.834071 -3.387555
11.017969 3.986157 0.043068 9.104038 -1.220740 13.122959 -5.859554
11.026969 4.352232 0.390002 9.094467 0.579852 17.029328 -5.859554
11.035331 4.749413 0.483316 9.321769 1.068148 23.590808 -4.943999
11.043811 4.931254 0.588592 9.639991 1.220740 27.222510 -4.242073
11.052144 5.467208 0.815894 10.006067 0.122074 27.497177 -3.936888
11.060319 6.778381 1.057552 10.089810 -1.251259 24.414808 -3.021332
11.068723 7.855074 1.074300 9.941465 -2.807703 23.010956 -1.709037
11.077434 8.960479 0.887674 9.405512 -4.455702 23.865474 -0.122074
11.085731 9.735698 0.677120 8.989190 -3.753777 28.412732 1.770074
11.093384 10.202264 0.760863 8.661397 -1.953185 37.202063 3.509629
11.101632 10.403247 0.913993 8.580047 1.678518 48.921171 6.317331
11.109299 10.183123 1.244179 8.687716 4.486221 61.555834 9.704886
11.117461 10.051527 2.170135 9.082504 4.699850 72.969756 13.122959
11.125974 9.745268 2.866396 9.467721 1.648000 80.477309 14.893033
11.134930 9.113608 3.182226 9.833796 -2.746666 85.482345 19.775994
11.143889 8.592010 3.064986 10.360179 -9.582812 86.153752 23.468734
11.152677 8.326426 2.299338 10.872207 -15.991699 81.240272 29.023103
11.161636 8.158940 1.662893 11.092331 -18.555254 71.443831 39.765618
11.170592 7.431574 0.806323 11.156932 -14.252144 55.879391 49.104282
11.179566 5.940953 -0.282333 11.027729 -1.831111 38.880581 55.207984
11.188295 4.053151 -0.875710 10.821961 13.031404 16.937773 54.811243
11.197245 3.258791 -0.543132 10.869814 31.067843 -8.239998 49.104282
11.205488 2.452467 -0.626875 10.951164 45.442061 -27.466659 42.023988
11.213163 1.856697 -0.495279 10.924845 57.863094 -48.982208 26.612140
11.221533 1.792096 0.660372 10.781286 66.866054 -65.919980 11.902219
11.229840 2.155779 0.473745 10.364965 72.237312 -75.411237 5.645924
11.238072 1.313565 0.507242 8.828883 74.983978 -81.087680 -0.518815
11.246446 1.404486 -0.911600 7.924461 78.005310 -77.852718 -12.848292
11.254744 -2.014612 0.346934 9.427046 69.917905 -82.430494 -22.583697
11.263114 -2.560137 0.849391 8.230720 59.144871 -84.475234 -45.655690
11.270845 -3.722965 0.930741 7.323905 53.621021 -76.387829 -66.011536
11.279088 -6.510404 1.945225 7.055928 42.359691 -49.714652 -89.388714
11.286752 -8.934159 1.512156 7.893356 23.010956 -66.011536 -100.100711
11.295003 -9.549071 0.739329 5.036531 3.845332 -54.475539 -109.683523
11.302663 -10.915275 0.825465 4.079470 -11.871700 -41.261025 -113.101596
11.310917 -11.915403 1.787310 3.931126 -31.861324 -31.373028 -108.615375
11.319183 -10.635334 2.430934 4.249348 -59.938353 -9.887997 -92.715232
11.327555 -8.953301 2.811365 5.309293 -85.116123 24.506363 -75.106052
11.335279 -8.611151 2.878359 6.079727 -99.246193 62.501907 -58.687094
11.343526 -8.400598 1.454732 6.864516 -102.206488 92.287973 -45.564135
11.351755 -12.992096 1.244179 7.737834 -93.966491 89.419233 -35.370952
11.359429 -14.877505 0.035890 7.457894 -71.565905 69.124424 -33.692434
11.368032 -15.236402 -0.634053 7.359795 -43.733024 32.776879 -31.617176
11.376414 -13.925230 -1.282461 8.087161 -27.863399 -3.723258 -22.522660
11.384114 -11.372271 -1.370989 8.544157 -16.449477 -16.968291 -12.543107
11.392484 -7.510532 -2.871181 9.671096 -7.843257 -19.837031 0.244148
11.400683 -8.044093 -2.320872 8.304892 0.335704 -13.428144 10.620441
11.409024 -5.553343 -3.883273 9.135142 13.916440 -2.075259 22.705771
11.417372 -5.053279 -3.916770 9.137535 21.454512 0.854518 35.798212
11.425535 -2.718052 -4.024439 10.501346 24.140141 -3.143406 48.554949
11.433757 -3.689468 -2.129460 8.675753 17.822810 -4.272591 58.565020
11.441398 -4.797266 -1.172399 8.202008 16.571551 -15.106662 58.442946
11.449629 -5.093954 -0.234480 7.989062 17.700735 -20.783105 49.104282
11.457276 -5.196838 0.801538 7.347832 21.607105 -30.335398 38.605914
11.465470 -4.658492 1.638966 6.799915 20.599994 -41.749321 27.191992
11.474108 -4.404871 1.720316 6.321384 17.303995 -48.402356 17.242958
11.481800 -3.895236 1.464302 6.189789 14.343699 -47.822504 10.773034
11.490200 -3.385601 1.086264 5.979235 11.688589 -41.261025 5.676443
11.498431 -3.328178 0.667550 6.134758 10.956145 -30.945769 4.211554
11.506093 -3.323392 0.320615 6.443410 11.841182 -19.653920 4.486221
11.513744 -3.371245 0.133988 6.565435 13.824885 -10.132145 5.249184
11.521398 -3.885665 0.263192 6.859731 16.113773 -4.821924 6.103702
11.529624 -4.558000 0.500064 7.347832 21.240883 -4.028443 8.331553
11.538079 -5.194446 0.768041 8.015381 28.168584 -3.448592 10.895108
11.546481 -5.938560 1.040803 8.783422 32.532731 -0.701926 11.108737
11.554128 -6.551079 1.198718 9.242811 37.720878 5.066073 12.573626
11.562348 -7.261696 1.275283 9.393548 43.977172 9.949034 15.381329
11.569997 -8.089554 1.363811 9.565819 49.531541 13.275552 17.029328
11.578232 -8.692502 1.222645 9.824226 52.827540 10.162664 17.822810
11.585895 -8.993976 1.452339 9.398334 53.010651 -2.014222 17.365032
11.593531 -9.139927 1.751421 9.199744 51.362651 -17.426069 14.709922
11.601913 -9.118394 2.160564 8.606366 46.082949 -34.699545 10.162664
11.610374 -8.792993 2.387866 8.161333 38.117618 -43.885617 6.042665
11.618794 -8.158940 2.038539 7.658876 27.039399 -47.181616 1.068148
11.626454 -7.477035 1.418842 7.046358 18.799402 -44.740135 -3.692740
11.634673 -6.376415 1.203504 6.481692 11.017182 -36.622211 -6.866665
11.642324 -5.826106 0.916385 6.185003 6.653035 -26.612140 -10.498367
11.650489 -5.431318 0.610126 5.491134 4.516739 -11.200293 -13.794366
11.659523 -5.617945 0.904422 5.031745 6.317331 7.263405 -15.869625
11.667715 -5.751933 1.892587 5.373894 4.028443 19.287698 -12.909330
11.675360 -5.352361 2.189276 5.960094 -5.127110 22.766808 -9.430219
11.683565 -4.428797 1.744243 6.603717 -21.240883 21.118809 -6.408887
11.691204 -3.806708 0.985772 6.890835 -33.051546 16.754662 -5.188147
11.699430 -3.431062 0.090921 6.991327 -44.129765 7.995849 -7.293924
11.707072 -2.667806 -0.543132 6.991327 -50.080874 -2.441481 -13.306070
11.714707 -1.808844 -0.751292 7.003290 -49.073763 -11.810663 -19.959105
11.722953 -1.270498 -0.619697 7.012860 -42.207099 -15.900143 -22.553179
11.730610 -0.476138 -0.059816 6.778381 -32.227546 -16.144292 -21.393475
11.738272 0.992950 -0.452211 6.838197 -25.513474 -13.428144 -18.341624
11.746513 2.598419 0.358898 7.670840 -20.325327 -8.911405 -8.575701
11.754145 3.553087 -0.038282 7.412433 -18.127995 -2.746666 2.502518
11.761780 3.900021 -0.066994 7.319120 -10.345775 -2.258370 15.503403
11.770333 3.572228 0.710617 7.656484 -1.342814 2.197333 26.123844
11.778697 1.540867 1.516941 8.333604 1.220740 5.554369 37.110508
11.786424 0.339756 3.586584 8.891092 -3.479110 3.448592 56.886502
11.794762 0.031104 4.502969 9.410297 -13.153478 0.488296 83.864864
11.802995 1.117368 3.531553 9.616065 -23.133030 -2.288888 107.303079
11.810635 3.725358 1.811237 10.029994 -30.182806 1.281777 122.409742
11.819157 6.634822 0.016749 10.393677 -32.685324 16.144292 132.114628
11.827563 9.302628 -1.311173 10.635334 -25.940733 33.692434 132.633442
11.835814 10.836317 -1.763384 11.149754 -16.937773 35.431990 122.470779
11.843490 11.049263 -2.198846 11.460799 -16.327403 21.881771 110.049745
11.851749 11.728776 -2.639094 12.054176 -16.693625 13.855403 95.492416
11.859439 12.350865 -2.249092 11.326811 -17.151402 33.570360 73.397015
11.867840 13.317496 -0.318223 11.171288 -16.083254 50.386059 47.334208
11.876268 12.503995 0.760863 11.676138 -10.559404 48.127689 18.280587
11.885085 11.685708 -0.198590 13.274429 -0.640889 35.401471 -19.318216
11.893441 10.271651 -0.756078 12.867678 10.834071 10.162664 -59.511093
11.901756 8.943730 -1.052767 11.826875 20.264290 -19.745476 -89.877010
11.909984 8.544157 -0.751292 10.879385 27.283547 -41.169469 -108.645894
11.918244 7.003290 -0.253621 9.106430 29.541917 -59.999390 -118.015076
11.926621 6.051015 0.282333 8.046486 24.170660 -74.861904 -118.076113
11.934936 5.658620 1.275283 7.137278 11.261330 -81.392865 -114.047670
11.943138 5.098740 1.354241 6.589361 -6.500443 -74.770348 -104.739525
11.951344 4.380944 1.667678 6.046229 -27.466659 -53.956725 -87.679678
11.958991 3.888058 2.452467 5.845247 -43.000580 -32.532731 -72.206793
11.966628 3.655971 3.615296 6.232856 -58.290353 -6.378368 -52.522355
11.974843 3.433454 3.651186 6.675497 -68.544572 21.973327 -28.473769
11.983803 2.773083 3.256398 7.575134 -71.504868 52.217170 -2.227851
11.992954 1.708353 1.650929 8.809742 -64.119388 76.326792 22.614216
12.001960 0.696261 -0.069387 9.436616 -46.937468 88.869900 43.580432
12.011038 -0.514420 -1.210681 9.840974 -20.722068 84.200568 58.900723
12.019839 -1.442769 -1.466695 10.513309 9.643849 60.457167 68.758202
12.028812 -1.461910 -1.181970 11.111472 34.730064 25.513474 68.300424
12.037911 -1.205896 -0.866140 11.111472 51.484725 -10.162664 56.917020
12.046839 -1.308780 -0.026319 10.824354 58.626057 -42.878506 37.385174
12.055955 -1.323136 1.055159 9.852937 52.980132 -67.934202 13.885922
12.064732 -0.342149 1.760991 8.907840 41.047395 -83.468123 -5.157628
12.073701 0.574236 1.548045 8.199615 27.619251 -88.320566 -16.174810
12.083498 1.490622 0.856569 7.570348 15.442366 -78.524125 -23.682363
12.093372 2.083999 0.547917 6.921940 7.080294 -57.222205 -28.534806
12.102529 2.371117 0.569451 7.055928 4.791406 -35.920286 -27.985473
12.111020 1.985900 0.421107 7.254518 1.739555 -12.756737 -23.163549
12.118702 1.631788 0.308652 7.563170 -0.671407 3.173925 -18.829920
12.126928 1.000128 0.153130 8.144584 -1.525925 16.235847 -13.428144
12.134590 0.672335 0.088528 8.443666 -0.091556 20.630512 -8.667257
12.142810 0.196197 0.136381 8.809742 2.044740 19.348735 -4.394665
12.150448 -0.004785 0.145952 9.020295 4.272591 15.106662 -2.441481
12.158087 -0.114847 0.523991 9.381585 6.103702 9.308145 -1.617481
12.166280 -0.131596 0.811109 9.527537 6.103702 2.624592 -2.533036
12.173894 -0.291903 1.016877 9.503610 4.882962 -4.699850 -4.181036
12.181502 -0.248836 1.076693 9.410297 4.119999 -12.634663 -5.523850
12.189721 -0.141166 0.937919 9.132749 4.425184 -21.942808 -6.042665
12.197377 0.081350 0.727366 8.879128 5.584887 -28.656880 -5.554369
12.205721 0.318223 0.574236 8.534587 8.056887 -32.135990 -3.601184
12.214157 0.624482 0.358898 8.135014 11.963256 -31.800287 -0.946074
12.222550 1.107797 0.433070 7.974706 14.496292 -28.168584 1.373333
12.231025 1.394916 0.579022 8.003418 14.404736 -21.301920 3.295999
12.239530 1.323136 0.708225 7.998633 13.122959 -16.602069 5.432295
12.247758 1.012091 0.820679 8.130229 12.146367 -12.543107 5.737480
12.255405 0.722581 1.024055 8.199615 10.345775 -12.115848 4.669332
12.263629 0.581414 0.959453 8.068020 7.904294 -14.160588 2.685629
12.271837 0.729759 0.870925 7.792865 6.897183 -15.778069 0.640889
12.279481 0.858962 0.756078 7.730656 6.500443 -14.893033 -0.915555
12.287113 0.976202 0.916385 7.797650 5.951109 -11.139256 -2.838221
12.295310 1.062337 0.985772 7.622987 5.371258 -6.042665 -4.730369
12.302915 1.014484 1.117368 7.723478 6.042665 -1.953185 -6.042665
12.310514 0.868532 1.225037 7.795257 5.981628 -0.122074 -5.340739
12.318123 0.902029 1.138902 8.216364 5.310221 0.579852 -4.119999
12.326306 0.921171 0.811109 8.352745 4.913480 0.183111 -2.777184
12.333918 0.997736 0.629267 8.355138 5.737480 -0.335704 -0.579852
12.341535 0.925956 0.689084 8.513053 6.744591 -1.312296 1.251259
12.349856 0.935527 0.646016 8.481948 6.744591 -3.814814 3.357036
12.357461 1.007306 0.801538 8.472378 6.317331 -5.310221 4.181036
12.365640 1.191540 0.904422 8.302499 4.272591 -5.523850 4.028443
12.373261 1.222645 0.945097 8.084768 1.922666 -4.150517 2.746666
12.380875 1.234608 1.186755 7.984277 -1.464888 -1.678518 0.640889
12.388461 1.308780 1.179577 8.012989 -5.310221 1.220740 -0.915555
12.396650 1.284854 0.945097 8.103909 -8.575701 5.951109 -2.075259
12.404264 1.134117 0.846999 8.103909 -9.063997 10.162664 -2.380444
12.411901 1.114975 0.813501 8.300107 -7.995849 11.169774 -3.173925
12.420111 0.916385 0.579022 8.505875 -6.164739 11.261330 -2.471999
12.427739 0.806323 0.454604 8.570476 -3.265481 10.406812 -1.739555
12.435369 0.806323 0.598163 8.520231 -1.190222 8.880886 -1.800592
12.443567 0.729759 0.696261 8.637471 0.488296 6.073183 -2.014222
12.451194 0.710617 0.839821 8.529801 0.610370 3.479110 -2.258370
12.458805 0.959453 0.988165 8.491519 -0.579852 0.885037 -2.868740
12.466422 1.079086 0.942705 8.228327 -1.831111 1.190222 -3.753777
12.474731 1.143687 0.945097 8.034523 -3.204443 3.967406 -4.089480
12.483224 1.138902 0.942705 8.166118 -4.669332 6.714072 -3.540147
12.491533 0.980987 0.928349 8.194830 -6.439405 9.277627 -2.533036
12.499719 0.878103 0.923563 8.359923 -8.087405 10.803552 -0.976592
12.507934 0.875710 0.925956 8.505875 -9.460738 12.207404 0.671407
12.515573 0.899637 0.858962 8.606366 -10.559404 13.061922 2.166814
12.523207 0.870925 0.808716 8.649434 -11.383404 14.435255 3.631703
12.531437 0.777612 0.806323 8.618329 -12.298959 16.052736 4.730369
12.539094 0.626875 0.780004 8.783422 -12.756737 16.937773 5.829035
12.546738 0.674728 0.820679 8.895877 -13.031404 16.449477 6.897183
12.554960 0.634053 0.698654 8.993976 -12.939848 14.252144 7.080294
12.562607 0.648408 0.397180 9.020295 -13.214515 10.284738 6.958220
12.570934 0.610126 0.339756 8.946123 -13.702811 6.927702 6.256294
12.579453 0.851784 0.289511 8.721213 -13.641774 4.699850 4.730369
12.587668 1.045589 0.306259 8.565691 -13.916440 4.516739 2.685629
12.595873 1.595898 0.485708 8.611151 -14.862514 5.371258 -0.762963
12.603506 1.825593 0.526383 8.520231 -15.442366 6.164739 -4.089480
12.611140 2.052895 0.456996 8.584832 -15.381329 6.042665 -6.561480
12.619468 2.804187 0.401965 8.477163 -15.350810 3.875851 -7.446516
12.627096 3.682290 0.313437 8.381457 -15.747551 2.227851 -6.012146
12.634718 4.641743 0.220124 8.249861 -16.785180 3.418073 -2.777184
12.642909 5.658620 0.418714 8.084768 -18.707846 8.667257 1.709037
12.650547 6.627644 0.787182 7.888571 -20.599994 17.517624 6.744591
12.658198 7.333476 1.241786 8.290536 -23.438215 31.525620 8.209479
12.666362 8.091946 1.667678 8.792993 -27.130955 51.698355 8.789331
12.674663 9.173424 1.961974 9.637599 -29.999695 69.185461 8.178961
12.682486 10.472634 1.902158 10.661653 -31.891842 83.559679 8.362072
12.690884 11.879513 1.818415 11.685708 -31.525620 93.081454 10.803552
12.699089 13.080624 1.588720 12.334117 -26.123844 94.088565 17.029328
12.707584 13.674001 1.406879 12.836573 -15.564440 86.092715 30.121769
12.716706 13.346208 1.117368 12.769579 -4.730369 70.986053 48.219245
12.724950 12.480068 0.588592 12.326939 6.012146 51.637318 67.812128
12.733428 11.393805 -0.421107 12.013501 18.799402 26.978362 90.060121
12.742028 10.034779 -1.287246 11.683316 27.741325 4.364147 106.021302
12.750277 8.075198 -2.007434 10.857851 33.997620 -20.447401 116.428114
12.757952 6.685067 -2.380688 10.041957 40.559099 -40.192877 119.174780
12.766491 5.366717 -2.179705 9.350481 50.294504 -60.365612 116.855373
12.774857 5.160949 -2.182098 9.321769 63.570055 -73.335978 109.286782
12.782556 5.352361 -0.849391 9.269131 75.533311 -87.588122 95.156713
12.790816 5.330827 1.064730 9.326554 81.270791 -105.410932 80.324717
12.798481 4.969536 2.100748 8.809742 80.599384 -121.799371 66.988128
12.806704 5.706473 3.012348 8.309677 75.685904 -132.084109 56.825465
12.814371 7.039180 4.500577 7.548814 65.126499 -129.551073 43.305765
12.822542 7.469857 4.160820 7.259304 44.801172 -106.326487 34.058657
12.830883 5.570092 2.392651 6.627644 18.524735 -72.054201 27.558214
12.839231 3.943089 0.574236 5.785430 -8.087405 -32.197027 25.635548
12.847451 2.165349 -0.961846 5.699295 -18.860439 5.035554 25.055696
12.855097 0.406751 -1.961974 6.216108 -17.975402 44.373913 21.698660
12.863337 -1.263320 -3.069771 7.419611 -7.354961 80.599384 14.221625
12.870982 -3.842598 -3.734928 8.307285 12.115848 101.260414 0.885037
12.879137 -13.554369 3.215723 11.101901 25.330363 92.440565 -21.057772
12.888389 -11.831660 -2.464431 12.606879 43.733024 20.233772 -33.936583
12.896818 -14.298483 1.301602 12.293442 36.744285 -36.439100 -64.577166
12.905310 -13.975475 3.866524 10.393677 12.176885 -74.465163 -90.701010
12.913735 -12.587738 5.500705 7.701944 -15.137181 -78.920866 -105.441450
12.921408 -14.154924 7.491391 5.443281 -47.364727 -61.403241 -119.327372
12.929647 -14.377441 6.936296 4.400085 -80.690939 -47.181616 -127.597888
12.937323 -14.686093 5.897885 4.524503 -102.145451 -32.502213 -136.356700
12.945569 -16.040333 5.661013 5.108310 -117.587817 -44.892727 -152.104251
12.953186 -15.317753 3.739714 6.596539 -118.381298 -38.605914 -156.498917
12.960851 -14.966033 2.816150 6.814270 -111.728263 -26.093326 -151.402326
12.970485 -14.028114 2.634309 7.400470 -102.603229 0.640889 -133.243812
12.979761 -13.130869 0.952275 6.974578 -95.461898 24.628437 -108.645894
12.988670 -11.001410 -1.117368 7.137278 -80.385754 36.378063 -102.999969
12.997835 -9.666311 -3.227686 7.517710 -48.829615 46.662801 -99.917600
13.006650 -7.307157 -4.644136 8.936552 -28.412732 50.538652 -85.177160
13.015052 -5.888314 -6.400342 8.989190 -25.055696 60.029908 -52.797021
13.022777 -8.702072 -6.493655 8.345567 -9.918516 59.358501 -46.021912
13.031012 -9.331339 -6.591754 9.331339 22.980438 51.545763 -46.052431
13.038681 -9.400726 -5.376287 10.113736 45.289468 40.070803 -38.026063
13.046926 -9.740483 -4.079470 10.175945 62.471389 11.871700 -21.362957
13.054595 -9.860115 -2.840077 9.345695 71.687979 -7.507553 -12.970367
13.063153 -9.587353 -0.404358 8.146977 80.751976 -24.201178 1.007111
13.071850 -9.544285 1.370989 7.584704 75.075533 -30.915250 17.120884
13.080237 -9.159069 1.629395 6.735313 64.607685 -31.128880 31.830805
13.087938 -9.302628 1.512156 6.555864 54.780725 -33.600879 44.862209
13.096360 -9.336125 1.725101 6.565435 45.442061 -43.061617 54.841762
13.104821 -8.848024 2.052895 6.766417 27.680288 -45.777764 62.196722
13.112588 -8.414954 2.361547 6.553471 10.437330 -41.016877 64.210944
13.121403 -7.551207 2.495535 6.175433 -9.582812 -30.396435 63.539537
13.130366 -6.816663 2.019398 5.596411 -25.391400 -16.815699 59.877316
13.138594 -6.156291 0.653194 5.615552 -30.610065 -0.549333 54.109317
13.146245 -5.479171 -0.179449 5.610767 -28.565325 13.519700 44.526505
13.154486 -5.172912 -0.705832 5.936167 -26.734214 24.964141 30.884732
13.162153 -4.900150 -1.595898 6.402734 -24.353771 34.943693 19.196142
13.170547 -4.605853 -1.806452 6.283102 -16.083254 41.322062 4.882962
13.178877 -3.780389 -1.433198 6.914762 -6.897183 37.476730 -13.061922
13.187906 -2.840077 -1.062337 6.979363 -3.601184 25.666066 -25.025178
13.196163 -1.528904 -0.964238 6.675497 -1.007111 12.543107 -23.926511
13.204528 0.476138 -1.275283 6.622858 -0.274667 2.044740 -15.320292
13.212720 3.139158 -2.725230 6.307028 6.256294 -0.305185 -3.875851
13.220334 4.270882 -2.663021 6.388379 19.501328 7.629627 -0.488296
13.228548 4.352232 -1.062337 7.292801 33.265175 26.306955 -2.502518
13.236196 4.230207 0.378039 8.123051 36.744285 37.263100 -3.692740
13.243846 4.747020 1.636573 9.218885 31.403546 45.228431 -5.798517
13.252202 5.452852 2.186883 9.936680 21.759697 49.897763 -6.012146
13.260600 6.101260 1.973937 9.970177 10.956145 52.949614 -5.096591
13.268416 6.603717 1.703568 10.168767 6.286813 52.644429 -5.218665
13.276779 7.835932 1.693997 10.898526 2.319407 51.942503 -5.981628
13.284475 8.613544 2.249092 11.453621 -1.922666 52.858058 -4.455702
13.292701 9.680667 2.127067 11.467977 -7.202368 56.031983 3.418073
13.300344 9.872079 1.538475 11.173681 -10.956145 57.313761 12.115848
13.308579 10.357787 1.246571 11.625892 -10.864589 60.914945 17.914365
13.316265 11.001410 1.473873 12.078103 -10.437330 64.210944 20.325327
13.324516 10.860244 1.461910 12.726511 -10.559404 65.950499 24.201178
13.332196 10.771715 1.538475 13.324674 -9.430219 65.767388 28.809473
13.340533 10.307541 1.655715 13.896518 -7.538072 57.405316 30.915250
13.348971 9.372015 2.191668 14.178851 -6.683554 36.652730 35.157323
13.357343 9.795514 2.428541 14.549712 -7.507553 6.256294 39.582507
13.366521 11.714420 1.461910 13.989831 1.739555 -21.668142 31.067843
13.375321 12.063747 1.801666 13.135655 6.225776 -39.704581 21.454512
13.384298 12.068532 1.655715 12.511173 13.306070 -51.698355 12.298959
13.392883 12.391540 1.737065 11.843623 18.463698 -55.421613 1.312296
13.401875 11.247853 2.600812 11.329203 19.745476 -59.572130 -7.477035
13.410996 10.652083 2.481179 10.776501 20.203253 -65.584277 -13.489181
13.420074 10.073061 2.612775 10.187909 18.677328 -66.927091 -14.099551
13.429042 9.651955 2.921427 9.604102 10.345775 -67.873165 -9.125034
13.437808 9.290664 2.679769 8.699680 -2.990814 -65.218055 -3.753777
13.446759 9.111216 2.127067 8.290536 -16.632588 -59.114353 3.692740
13.455875 9.233241 1.177184 7.936424 -27.191992 -50.447096 14.465773
13.464805 9.735698 0.930741 7.747404 -30.579546 -38.544877 22.736290
13.473037 9.967785 0.476138 7.713907 -28.321177 -21.912290 25.452437
13.481433 9.537107 0.461782 7.871822 -22.370067 1.251259 24.750511
13.489824 8.620722 0.629267 8.443666 -16.754662 18.402661 21.057772
13.498071 7.515317 0.421107 8.934159 -6.714072 26.551103 17.181921
13.505695 6.725742 0.519205 9.551463 5.523850 24.842067 13.214515
13.513912 5.766289 0.677120 9.606494 15.961180 13.000885 6.378368
13.521543 5.352361 1.189148 9.546678 22.400586 -3.479110 -0.549333
13.529163 5.452852 1.617432 9.577783 22.553179 -20.935698 -2.014222
13.537369 6.280709 0.636445 9.472506 13.275552 -41.016877 10.010071
13.545037 7.254518 -0.581414 9.020295 3.662221 -53.407392 22.217475
13.553556 7.802435 -1.746635 8.477163 -4.699850 -55.421613 31.556139
13.561900 6.929118 -1.995471 8.079983 -7.293924 -50.141911 37.171545
13.570127 5.474386 -2.598419 8.237898 -0.976592 -47.273171 42.634358
13.577768 4.869045 -1.878231 8.572869 7.141331 -41.047395 40.314951
13.586120 3.416706 -0.399573 8.871950 18.311106 -32.258065 28.321177
13.594593 2.332835 1.588720 9.106430 27.161473 -30.121769 15.808588
13.603526 0.026319 2.986029 8.374279 33.478805 -35.615101 1.739555
13.611750 -1.519333 4.579534 7.371758 30.976287 -42.115543 -7.019257
13.620000 -2.296945 5.574877 5.998376 18.311106 -43.733024 -17.365032
13.627774 -0.971416 3.167870 4.227815 5.096591 -42.420728 -22.827845
13.635593 -4.967144 4.881008 5.861995 -22.949919 -41.108432 -22.064882
13.643967 -4.567571 1.784918 6.316599 -55.024873 -51.973022 -15.686514
13.651761 -2.452467 -0.799145 5.682546 -87.405011 -32.563250 -3.082369
13.660133 -2.397436 -3.036274 6.196966 -108.005005 15.961180 12.482070
13.668362 -5.070028 -4.012476 6.768810 -106.082339 52.705466 27.405622
13.676019 -8.245076 -6.366845 8.135014 -89.968566 61.342204 33.875546
13.684486 -14.305661 -5.007819 10.484597 -66.866054 51.820429 29.236732
13.692872 -13.011237 -6.627644 10.238154 -38.972137 4.333628 9.979553
13.701036 -13.566332 -2.404614 10.161589 -13.641774 -26.154363 -17.609180
13.709242 -11.826875 -0.366076 9.819440 9.460738 -26.490066 -45.777764
13.717671 -12.429823 3.222901 9.628028 24.140141 -8.514664 -65.797906
13.726169 -15.808246 5.914634 8.962871 29.084140 -1.007111 -61.677908
13.734392 -13.858235 4.101004 9.111216 17.487106 -2.563555 -74.190497
13.743469 -11.874728 3.373638 9.130357 9.674368 16.541032 -71.291238
13.752270 -11.379449 2.081606 9.230848 4.364147 47.608875 -32.959990
13.760637 -11.214356 -0.088528 9.510788 0.152593 59.633168 -8.362072
13.769004 -10.269259 -2.540996 10.360179 0.122074 61.037019 5.829035
13.776701 -10.274044 -2.976458 10.843495 6.256294 53.376873 5.859554
13.785049 -9.831404 -3.538731 11.173681 26.123844 35.279397 1.586962
13.793295 -12.401111 -0.521598 10.092203 48.432875 18.189032 -8.514664
13.800977 -10.740611 -2.074429 10.908097 69.460128 12.909330 -9.887997
13.808644 -9.221278 -1.548045 11.197607 84.139531 16.174810 -5.157628
13.817230 -7.890963 -1.351848 10.893741 88.229011 5.676443 2.655110
13.825561 -7.773724 -2.083999 10.824354 88.015381 -8.789331 11.505478
13.833304 -8.670968 -1.476266 10.199872 86.916715 -28.504288 16.388440
13.841548 -8.912626 -1.153258 9.388763 86.764122 -45.899838 21.210364
13.849205 -8.369494 -0.954668 8.211579 78.402051 -54.811243 25.940733
13.857443 -7.749797 -0.284725 6.847768 63.386944 -55.787835 32.410657
13.865099 -7.070284 0.143559 6.079727 44.007691 -48.097171 36.805322
13.873334 -6.307028 1.222645 5.550951 20.020142 -28.809473 37.018952
13.880991 -5.972057 2.148601 5.304508 -5.432295 -1.190222 35.035249
13.889475 -5.713651 2.794617 5.158556 -30.945769 25.269326 32.746361
13.897969 -5.795001 2.636702 5.125059 -54.506058 58.259835 27.191992
13.906326 -5.826106 1.442769 5.553343 -67.720573 87.649159 22.309030
13.914895 -5.799786 1.490622 6.086905 -69.704276 114.993744 11.719108
13.923245 -5.500705 0.794360 7.225806 -61.677908 119.205298 5.035554
13.931460 -5.103525 0.275155 8.570476 -53.682058 104.922636 -1.586962
13.939114 -4.833155 -1.277676 8.757103 -45.442061 79.012421 -11.200293
13.947342 -4.017261 -2.581671 8.735569 -35.645619 48.646504 -18.646809
13.955434 -3.246828 -3.143944 8.355138 -27.405622 24.079104 -25.849178
13.964698 -2.273019 -2.820936 7.558385 -18.677328 0.518815 -29.633473
13.972969 -1.146080 -1.533689 7.804828 -10.589923 -12.756737 -25.818659
13.980641 0.215339 -0.861354 8.001025 -5.066073 -20.874660 -19.623402
13.988306 1.193933 -0.854176 8.300107 1.831111 -23.621326 -14.404736
13.996501 2.115104 -0.882888 8.417347 15.503403 -23.438215 -8.178961
14.004763 2.643880 -0.325401 8.764281 31.189917 -22.186956 -2.777184
14.013120 3.584191 0.720188 9.156676 38.300729 -20.905179 5.493332
14.021466 4.536467 1.232215 9.192566 41.108432 -22.003845 18.768883
14.029112 5.969665 1.464302 9.517966 42.085025 -23.834956 35.279397
14.037349 7.285623 1.114975 9.783551 38.911100 -20.599994 50.538652
14.045009 8.034523 0.868532 9.974963 35.065767 -9.491256 68.880276
14.053550 8.431703 1.763384 9.903183 33.509323 1.922666 85.421308
14.061910 8.379064 2.509891 10.125700 33.356731 12.207404 92.562639
14.069659 8.749925 2.655843 10.405640 33.600879 21.271401 94.943083
14.078072 9.549071 1.890194 10.908097 35.767693 30.884732 94.363231
14.086322 10.534843 0.935527 11.144969 41.383099 32.990509 91.189306
14.094592 12.157060 -0.490493 11.800555 51.789911 29.297769 78.127384
14.102979 13.346208 -1.014484 12.365221 59.663686 26.886807 63.661611
14.111171 14.616706 -1.483444 12.645161 64.668722 21.729179 46.967986
14.119432 14.944499 -1.225037 12.520743 64.424574 8.728294 22.400586
14.127962 14.123820 0.425892 11.867550 48.463393 -18.860439 -10.345775
14.136563 13.896518 1.622217 11.099509 18.066958 -60.701315 -46.235542
14.144965 13.824738 3.160692 10.080239 -9.582812 -89.693899 -68.422498
14.153453 13.535228 4.292416 8.723606 -40.528581 -113.406781 -83.346049
14.161882 13.312711 4.024439 7.364580 -64.851833 -124.301889 -92.593158
14.170129 13.221790 3.366460 6.213715 -79.103977 -122.898038 -96.865749
14.177803 12.606879 2.280197 5.235121 -84.719382 -111.636708 -88.991974
14.186355 12.616449 2.131852 4.167998 -91.341899 -98.788415 -77.730644
14.194864 12.585345 1.631788 3.718180 -93.661306 -79.653310 -63.295389
14.203115 12.539885 1.325529 3.749284 -90.487381 -51.026948 -48.310801
14.211357 12.066140 0.808716 4.191925 -78.432569 -10.345775 -34.638508
14.219046 11.362700 0.825465 4.806836 -66.621906 22.370067 -26.886807
14.227436 9.860115 0.815894 5.704080 -50.843837 59.205908 -17.029328
14.235230 9.431831 0.629267 6.512796 -37.690359 77.150792 -10.010071
14.243601 9.343303 0.078957 7.632557 -19.257179 84.231086 0.122074
14.251967 9.364837 0.028712 8.453236 -5.066073 80.568865 8.362072
14.259605 9.357659 0.356505 8.931767 9.186071 72.450941 15.198218
14.267855 8.953301 0.619697 9.529930 21.851253 61.525315 21.668142
14.275522 8.089554 0.758470 9.857723 32.624287 50.935392 25.421918
14.283857 7.311942 0.248836 9.845759 43.244728 40.650655 27.344584
14.292307 6.412305 0.346934 9.584960 55.909909 31.281472 24.811548
14.300668 5.529417 0.942705 9.302628 61.861019 21.454512 17.487106
14.308914 4.974322 1.445161 9.089682 61.738945 14.557329 13.336589
14.316557 4.763768 1.519333 9.216492 61.525315 4.577776 17.944884
14.325055 5.491134 1.083871 8.642256 58.320872 3.204443 23.834956
14.333978 5.524631 -0.679513 8.515445 53.559984 12.237922 25.238807
14.342210 4.084256 -1.737065 8.257039 53.529466 15.076144 17.731254
14.350489 2.567315 -0.497671 8.156548 53.621021 6.500443 6.469924
14.358243 1.045589 1.107797 8.170904 46.632282 -8.819849 -3.479110
14.366038 0.148344 2.244307 8.230720 34.455397 -25.727103 -9.979553
14.374520 -0.720188 2.182098 8.132621 5.706961 -41.108432 -18.250069
14.382866 -1.493014 1.461910 6.929118 -19.470809 -45.838801 -26.551103
14.391438 -2.086392 0.265584 5.481564 -40.223395 -40.437025 -34.607990
14.399935 -4.720701 -1.799274 7.170775 -55.330058 -26.886807 -38.178655
14.408159 -5.634693 -1.906943 7.309549 -64.638203 -25.330363 -40.650655
14.415820 -4.010083 -4.254134 6.931510 -53.376873 -15.259255 -40.650655
14.424053 -5.546165 -5.117881 6.323777 -30.365917 2.594073 -48.280282
14.431686 -7.266482 -4.282846 6.689853 -14.831996 14.587848 -52.797021
14.440252 -9.266738 -1.906943 7.718693 -7.812738 28.138066 -50.263985
14.448761 -10.451100 1.007306 7.910105 -13.794366 39.521470 -48.890652
14.456996 -11.633070 3.055416 6.584576 -28.229621 54.048280 -52.095096
14.465690 -7.278445 -1.646144 3.215723 -33.326212 78.005310 -61.952574
14.474445 -15.796283 1.256142 8.419739 -47.608875 40.162358 -67.232276
14.483678 -14.011365 0.947490 7.264089 -37.720878 26.978362 -70.436720
14.492530 -14.291305 0.492886 8.668575 -30.549028 20.630512 -53.071688
14.500967 -14.018543 -0.047853 9.230848 -28.199103 12.451552 -30.335398
14.509981 -13.865413 -0.425892 9.611280 -18.311106 7.110813 -11.871700
14.518951 -13.992224 -0.973809 9.785943 2.410962 7.446516 13.428144
14.527718 -13.360564 -3.019526 9.812262 24.933622 4.760887 25.574511
